submission_id,RT,age,comments,condition,correctness,education,endTime,expected,experiment_id,gender,item,key_pressed,languages,number_of_items,picture,startDate,startTime,timeSpent,trial_number,trial_type
2646,1579,26,What a delight!,shape,correct,right,1629220874685,no target,256,male,4,s,German,5,images/practice/feature/F_5_NT_TRAIN.jpg,Tue Aug 17 2021 17:37:53 GMT+0100 (British Summer Time),1629218273498,43.353116666666665,1,practice
2646,1122,26,What a delight!,color,correct,right,1629220874685,target,256,male,1,l,German,1,images/practice/feature/F_C_1_T_1_Tblue_TRAIN.jpg,Tue Aug 17 2021 17:37:53 GMT+0100 (British Summer Time),1629218273498,43.353116666666665,2,practice
2646,1345,26,What a delight!,color,correct,right,1629220874685,target,256,male,5,l,German,15,images/practice/feature/F_C_15_T_5_Xblue_TRAIN.jpg,Tue Aug 17 2021 17:37:53 GMT+0100 (British Summer Time),1629218273498,43.353116666666665,3,practice
2646,1614,26,What a delight!,shape,correct,right,1629220874685,target,256,male,7,l,German,30,images/practice/feature/F_C_30_T_8_Sgreen_TRAIN.jpg,Tue Aug 17 2021 17:37:53 GMT+0100 (British Summer Time),1629218273498,43.353116666666665,4,practice
2646,1393,26,What a delight!,color,correct,right,1629220874685,no target,256,male,6,s,German,15,images/practice/feature/F_C_15_NT_TRAIN.jpg,Tue Aug 17 2021 17:37:53 GMT+0100 (British Summer Time),1629218273498,43.353116666666665,5,practice
2646,1202,26,What a delight!,shape,correct,right,1629220874685,target,256,male,3,l,German,5,images/practice/feature/F_5_T_3_Sbrown_TRAIN.jpg,Tue Aug 17 2021 17:37:53 GMT+0100 (British Summer Time),1629218273498,43.353116666666665,6,practice
2646,1340,26,What a delight!,color,correct,right,1629220874685,no target,256,male,2,s,German,1,images/practice/feature/F_1_NT_TRAIN.jpg,Tue Aug 17 2021 17:37:53 GMT+0100 (British Summer Time),1629218273498,43.353116666666665,7,practice
2646,1654,26,What a delight!,shape,correct,right,1629220874685,no target,256,male,8,s,German,30,images/practice/feature/F_C_30_NT_1_TRAIN.jpg,Tue Aug 17 2021 17:37:53 GMT+0100 (British Summer Time),1629218273498,43.353116666666665,8,practice
2646,1377,26,What a delight!,conjunction,correct,right,1629220874685,no target,256,male,22,s,German,15,images/practice/conjunction/C_15_NT_TRAIN.jpg,Tue Aug 17 2021 17:37:53 GMT+0100 (British Summer Time),1629218273498,43.353116666666665,1,practice
2646,1382,26,What a delight!,conjunction,correct,right,1629220874685,target,256,male,21,l,German,15,images/practice/conjunction/C_15_T_TRAIN.jpg,Tue Aug 17 2021 17:37:53 GMT+0100 (British Summer Time),1629218273498,43.353116666666665,2,practice
2646,1321,26,What a delight!,conjunction,correct,right,1629220874685,no target,256,male,18,s,German,1,images/practice/conjunction/C_1_NT_TRAIN.jpg,Tue Aug 17 2021 17:37:53 GMT+0100 (British Summer Time),1629218273498,43.353116666666665,3,practice
2646,2214,26,What a delight!,conjunction,correct,right,1629220874685,target,256,male,23,l,German,30,images/practice/conjunction/C_30_T_TRAIN.jpg,Tue Aug 17 2021 17:37:53 GMT+0100 (British Summer Time),1629218273498,43.353116666666665,4,practice
2646,1315,26,What a delight!,conjunction,correct,right,1629220874685,target,256,male,17,l,German,1,images/practice/conjunction/C_1_T_TRAIN.jpg,Tue Aug 17 2021 17:37:53 GMT+0100 (British Summer Time),1629218273498,43.353116666666665,5,practice
2646,2041,26,What a delight!,conjunction,correct,right,1629220874685,no target,256,male,24,s,German,30,images/practice/conjunction/C_30_NT_TRAIN.jpg,Tue Aug 17 2021 17:37:53 GMT+0100 (British Summer Time),1629218273498,43.353116666666665,6,practice
2646,978,26,What a delight!,conjunction,correct,right,1629220874685,target,256,male,19,l,German,5,images/practice/conjunction/C_5_T_TRAIN.jpg,Tue Aug 17 2021 17:37:53 GMT+0100 (British Summer Time),1629218273498,43.353116666666665,7,practice
2646,1383,26,What a delight!,conjunction,correct,right,1629220874685,no target,256,male,20,s,German,5,images/practice/conjunction/C_5_NT_TRAIN.jpg,Tue Aug 17 2021 17:37:53 GMT+0100 (British Summer Time),1629218273498,43.353116666666665,8,practice
2646,1847,26,What a delight!,shape,correct,right,1629220874685,no target,256,male,38,s,German,1,images/main/feature/1/no_target/F_C_1_NT_6.jpg,Tue Aug 17 2021 17:37:53 GMT+0100 (British Summer Time),1629218273498,43.353116666666665,1,main
2646,1726,26,What a delight!,shape,correct,right,1629220874685,no target,256,male,85,s,German,30,images/main/feature/30/no_target/F_C_30_NT_5.jpg,Tue Aug 17 2021 17:37:53 GMT+0100 (British Summer Time),1629218273498,43.353116666666665,2,main
2646,2001,26,What a delight!,color,correct,right,1629220874685,no target,256,male,83,s,German,30,images/main/feature/30/no_target/F_C_30_NT_3.jpg,Tue Aug 17 2021 17:37:53 GMT+0100 (British Summer Time),1629218273498,43.353116666666665,3,main
2646,1820,26,What a delight!,shape,correct,right,1629220874685,no target,256,male,88,s,German,30,images/main/feature/30/no_target/F_C_30_NT_8.jpg,Tue Aug 17 2021 17:37:53 GMT+0100 (British Summer Time),1629218273498,43.353116666666665,4,main
2646,1167,26,What a delight!,color,correct,right,1629220874685,no target,256,male,67,s,German,15,images/main/feature/15/no_target/F_C_15_NT_3.jpg,Tue Aug 17 2021 17:37:53 GMT+0100 (British Summer Time),1629218273498,43.353116666666665,5,main
2646,1008,26,What a delight!,color,correct,right,1629220874685,target,256,male,46,l,German,5,images/main/feature/5/target/F_C_5_T_6_Xblue.jpg,Tue Aug 17 2021 17:37:53 GMT+0100 (British Summer Time),1629218273498,43.353116666666665,6,main
2646,901,26,What a delight!,shape,correct,right,1629220874685,target,256,male,79,l,German,30,images/main/feature/30/target/F_C_30_T_7_Sgreen.jpg,Tue Aug 17 2021 17:37:53 GMT+0100 (British Summer Time),1629218273498,43.353116666666665,7,main
2646,814,26,What a delight!,color,correct,right,1629220874685,target,256,male,74,l,German,30,images/main/feature/30/target/F_C_30_T_2_Tblue.jpg,Tue Aug 17 2021 17:37:53 GMT+0100 (British Summer Time),1629218273498,43.353116666666665,8,main
2646,961,26,What a delight!,color,correct,right,1629220874685,no target,256,male,68,s,German,15,images/main/feature/15/no_target/F_C_15_NT_4.jpg,Tue Aug 17 2021 17:37:53 GMT+0100 (British Summer Time),1629218273498,43.353116666666665,9,main
2646,792,26,What a delight!,color,correct,right,1629220874685,target,256,male,25,l,German,1,images/main/feature/1/target/F_C_1_T_1_Tblue.jpg,Tue Aug 17 2021 17:37:53 GMT+0100 (British Summer Time),1629218273498,43.353116666666665,10,main
2646,888,26,What a delight!,color,correct,right,1629220874685,target,256,male,78,l,German,30,images/main/feature/30/target/F_C_30_T_6_Xblue.jpg,Tue Aug 17 2021 17:37:53 GMT+0100 (British Summer Time),1629218273498,43.353116666666665,11,main
2646,795,26,What a delight!,shape,correct,right,1629220874685,target,256,male,27,l,German,1,images/main/feature/1/target/F_C_1_T_3_Sbrown.jpg,Tue Aug 17 2021 17:37:53 GMT+0100 (British Summer Time),1629218273498,43.353116666666665,12,main
2646,766,26,What a delight!,shape,correct,right,1629220874685,target,256,male,31,l,German,1,images/main/feature/1/target/F_C_1_T_7_Sgreen.jpg,Tue Aug 17 2021 17:37:53 GMT+0100 (British Summer Time),1629218273498,43.353116666666665,13,main
2646,1456,26,What a delight!,shape,correct,right,1629220874685,no target,256,male,86,s,German,30,images/main/feature/30/no_target/F_C_30_NT_6.jpg,Tue Aug 17 2021 17:37:53 GMT+0100 (British Summer Time),1629218273498,43.353116666666665,14,main
2646,2223,26,What a delight!,color,correct,right,1629220874685,no target,256,male,65,s,German,15,images/main/feature/15/no_target/F_C_15_NT_1.jpg,Tue Aug 17 2021 17:37:53 GMT+0100 (British Summer Time),1629218273498,43.353116666666665,15,main
2646,1815,26,What a delight!,shape,incorrect,right,1629220874685,target,256,male,59,s,German,15,images/main/feature/15/target/F_C_15_T_3_Sbrown.jpg,Tue Aug 17 2021 17:37:53 GMT+0100 (British Summer Time),1629218273498,43.353116666666665,16,main
2646,970,26,What a delight!,color,correct,right,1629220874685,target,256,male,57,l,German,15,images/main/feature/15/target/F_C_15_T_1_Tblue.jpg,Tue Aug 17 2021 17:37:53 GMT+0100 (British Summer Time),1629218273498,43.353116666666665,17,main
2646,1080,26,What a delight!,color,correct,right,1629220874685,target,256,male,26,l,German,1,images/main/feature/1/target/F_C_1_T_2_Tblue.jpg,Tue Aug 17 2021 17:37:53 GMT+0100 (British Summer Time),1629218273498,43.353116666666665,18,main
2646,1576,26,What a delight!,shape,correct,right,1629220874685,no target,256,male,71,s,German,15,images/main/feature/15/no_target/F_C_15_NT_7.jpg,Tue Aug 17 2021 17:37:53 GMT+0100 (British Summer Time),1629218273498,43.353116666666665,19,main
2646,1095,26,What a delight!,shape,correct,right,1629220874685,target,256,male,80,l,German,30,images/main/feature/30/target/F_C_30_T_8_Sgreen.jpg,Tue Aug 17 2021 17:37:53 GMT+0100 (British Summer Time),1629218273498,43.353116666666665,20,main
2646,1078,26,What a delight!,shape,correct,right,1629220874685,no target,256,male,72,s,German,15,images/main/feature/15/no_target/F_C_15_NT_8.jpg,Tue Aug 17 2021 17:37:53 GMT+0100 (British Summer Time),1629218273498,43.353116666666665,21,main
2646,1080,26,What a delight!,shape,correct,right,1629220874685,target,256,male,43,l,German,5,images/main/feature/5/target/F_C_5_T_3_Sbrown.jpg,Tue Aug 17 2021 17:37:53 GMT+0100 (British Summer Time),1629218273498,43.353116666666665,22,main
2646,960,26,What a delight!,color,correct,right,1629220874685,no target,256,male,51,s,German,5,images/main/feature/5/no_target/F_C_5_NT_3.jpg,Tue Aug 17 2021 17:37:53 GMT+0100 (British Summer Time),1629218273498,43.353116666666665,23,main
2646,1567,26,What a delight!,color,correct,right,1629220874685,no target,256,male,84,s,German,30,images/main/feature/30/no_target/F_C_30_NT_4.jpg,Tue Aug 17 2021 17:37:53 GMT+0100 (British Summer Time),1629218273498,43.353116666666665,24,main
2646,910,26,What a delight!,shape,correct,right,1629220874685,target,256,male,48,l,German,5,images/main/feature/5/target/F_C_5_T_8_Sgreen.jpg,Tue Aug 17 2021 17:37:53 GMT+0100 (British Summer Time),1629218273498,43.353116666666665,25,main
2646,1173,26,What a delight!,color,correct,right,1629220874685,target,256,male,61,l,German,15,images/main/feature/15/target/F_C_15_T_5_Xblue.jpg,Tue Aug 17 2021 17:37:53 GMT+0100 (British Summer Time),1629218273498,43.353116666666665,26,main
2646,953,26,What a delight!,shape,correct,right,1629220874685,target,256,male,64,l,German,15,images/main/feature/15/target/F_C_15_T_8_Sgreen.jpg,Tue Aug 17 2021 17:37:53 GMT+0100 (British Summer Time),1629218273498,43.353116666666665,27,main
2646,1127,26,What a delight!,shape,correct,right,1629220874685,no target,256,male,40,s,German,1,images/main/feature/1/no_target/F_C_1_NT_8.jpg,Tue Aug 17 2021 17:37:53 GMT+0100 (British Summer Time),1629218273498,43.353116666666665,28,main
2646,854,26,What a delight!,color,correct,right,1629220874685,target,256,male,58,l,German,15,images/main/feature/15/target/F_C_15_T_2_Tblue.jpg,Tue Aug 17 2021 17:37:53 GMT+0100 (British Summer Time),1629218273498,43.353116666666665,29,main
2646,1552,26,What a delight!,shape,correct,right,1629220874685,no target,256,male,87,s,German,30,images/main/feature/30/no_target/F_C_30_NT_7.jpg,Tue Aug 17 2021 17:37:53 GMT+0100 (British Summer Time),1629218273498,43.353116666666665,30,main
2646,1015,26,What a delight!,color,correct,right,1629220874685,no target,256,male,66,s,German,15,images/main/feature/15/no_target/F_C_15_NT_2.jpg,Tue Aug 17 2021 17:37:53 GMT+0100 (British Summer Time),1629218273498,43.353116666666665,31,main
2646,959,26,What a delight!,color,correct,right,1629220874685,no target,256,male,36,s,German,1,images/main/feature/1/no_target/F_C_1_NT_4.jpg,Tue Aug 17 2021 17:37:53 GMT+0100 (British Summer Time),1629218273498,43.353116666666665,32,main
2646,770,26,What a delight!,color,correct,right,1629220874685,target,256,male,45,l,German,5,images/main/feature/5/target/F_C_5_T_5_Xblue.jpg,Tue Aug 17 2021 17:37:53 GMT+0100 (British Summer Time),1629218273498,43.353116666666665,33,main
2646,1055,26,What a delight!,shape,correct,right,1629220874685,no target,256,male,37,s,German,1,images/main/feature/1/no_target/F_C_1_NT_5.jpg,Tue Aug 17 2021 17:37:53 GMT+0100 (British Summer Time),1629218273498,43.353116666666665,34,main
2646,1948,26,What a delight!,color,correct,right,1629220874685,target,256,male,62,l,German,15,images/main/feature/15/target/F_C_15_T_6_Xblue.jpg,Tue Aug 17 2021 17:37:53 GMT+0100 (British Summer Time),1629218273498,43.353116666666665,35,main
2646,1327,26,What a delight!,shape,correct,right,1629220874685,target,256,male,76,l,German,30,images/main/feature/30/target/F_C_30_T_4_Sbrown.jpg,Tue Aug 17 2021 17:37:53 GMT+0100 (British Summer Time),1629218273498,43.353116666666665,36,main
2646,2157,26,What a delight!,color,correct,right,1629220874685,no target,256,male,33,s,German,1,images/main/feature/1/no_target/F_C_1_NT_1.jpg,Tue Aug 17 2021 17:37:53 GMT+0100 (British Summer Time),1629218273498,43.353116666666665,37,main
2646,877,26,What a delight!,shape,correct,right,1629220874685,target,256,male,44,l,German,5,images/main/feature/5/target/F_C_5_T_4_Sbrown.jpg,Tue Aug 17 2021 17:37:53 GMT+0100 (British Summer Time),1629218273498,43.353116666666665,38,main
2646,1483,26,What a delight!,color,correct,right,1629220874685,no target,256,male,52,s,German,5,images/main/feature/5/no_target/F_C_5_NT_4.jpg,Tue Aug 17 2021 17:37:53 GMT+0100 (British Summer Time),1629218273498,43.353116666666665,39,main
2646,1427,26,What a delight!,color,correct,right,1629220874685,target,256,male,41,l,German,5,images/main/feature/5/target/F_C_5_T_1_Tblue.jpg,Tue Aug 17 2021 17:37:53 GMT+0100 (British Summer Time),1629218273498,43.353116666666665,40,main
2646,1788,26,What a delight!,color,correct,right,1629220874685,no target,256,male,35,s,German,1,images/main/feature/1/no_target/F_C_1_NT_3.jpg,Tue Aug 17 2021 17:37:53 GMT+0100 (British Summer Time),1629218273498,43.353116666666665,41,main
2646,2187,26,What a delight!,color,correct,right,1629220874685,no target,256,male,81,s,German,30,images/main/feature/30/no_target/F_C_30_NT_1.jpg,Tue Aug 17 2021 17:37:53 GMT+0100 (British Summer Time),1629218273498,43.353116666666665,42,main
2646,2042,26,What a delight!,shape,correct,right,1629220874685,no target,256,male,39,s,German,1,images/main/feature/1/no_target/F_C_1_NT_7.jpg,Tue Aug 17 2021 17:37:53 GMT+0100 (British Summer Time),1629218273498,43.353116666666665,43,main
2646,1726,26,What a delight!,color,correct,right,1629220874685,no target,256,male,82,s,German,30,images/main/feature/30/no_target/F_C_30_NT_2.jpg,Tue Aug 17 2021 17:37:53 GMT+0100 (British Summer Time),1629218273498,43.353116666666665,44,main
2646,1485,26,What a delight!,color,correct,right,1629220874685,no target,256,male,34,s,German,1,images/main/feature/1/no_target/F_C_1_NT_2.jpg,Tue Aug 17 2021 17:37:53 GMT+0100 (British Summer Time),1629218273498,43.353116666666665,45,main
2646,1818,26,What a delight!,color,incorrect,right,1629220874685,target,256,male,30,s,German,1,images/main/feature/1/target/F_C_1_T_6_XBlue.jpg,Tue Aug 17 2021 17:37:53 GMT+0100 (British Summer Time),1629218273498,43.353116666666665,46,main
2646,1686,26,What a delight!,shape,correct,right,1629220874685,target,256,male,47,l,German,5,images/main/feature/5/target/F_C_5_T_7_Sgreen.jpg,Tue Aug 17 2021 17:37:53 GMT+0100 (British Summer Time),1629218273498,43.353116666666665,47,main
2646,1145,26,What a delight!,shape,correct,right,1629220874685,target,256,male,28,l,German,1,images/main/feature/1/target/F_C_1_T_4_Sbrown.jpg,Tue Aug 17 2021 17:37:53 GMT+0100 (British Summer Time),1629218273498,43.353116666666665,48,main
2646,2126,26,What a delight!,color,correct,right,1629220874685,target,256,male,29,l,German,1,images/main/feature/1/target/F_C_1_T_5_XBlue.jpg,Tue Aug 17 2021 17:37:53 GMT+0100 (British Summer Time),1629218273498,43.353116666666665,49,main
2646,1077,26,What a delight!,shape,correct,right,1629220874685,no target,256,male,56,s,German,5,images/main/feature/5/no_target/F_C_5_NT_8.jpg,Tue Aug 17 2021 17:37:53 GMT+0100 (British Summer Time),1629218273498,43.353116666666665,50,main
2646,947,26,What a delight!,shape,correct,right,1629220874685,target,256,male,32,l,German,1,images/main/feature/1/target/F_C_1_T_8_Sgreen.jpg,Tue Aug 17 2021 17:37:53 GMT+0100 (British Summer Time),1629218273498,43.353116666666665,51,main
2646,954,26,What a delight!,color,correct,right,1629220874685,target,256,male,77,l,German,30,images/main/feature/30/target/F_C_30_T_5_Xblue.jpg,Tue Aug 17 2021 17:37:53 GMT+0100 (British Summer Time),1629218273498,43.353116666666665,52,main
2646,1014,26,What a delight!,shape,correct,right,1629220874685,no target,256,male,54,s,German,5,images/main/feature/5/no_target/F_C_5_NT_6.jpg,Tue Aug 17 2021 17:37:53 GMT+0100 (British Summer Time),1629218273498,43.353116666666665,53,main
2646,806,26,What a delight!,color,correct,right,1629220874685,target,256,male,42,l,German,5,images/main/feature/5/target/F_C_5_T_2_Tblue.jpg,Tue Aug 17 2021 17:37:53 GMT+0100 (British Summer Time),1629218273498,43.353116666666665,54,main
2646,959,26,What a delight!,shape,correct,right,1629220874685,no target,256,male,55,s,German,5,images/main/feature/5/no_target/F_C_5_NT_7.jpg,Tue Aug 17 2021 17:37:53 GMT+0100 (British Summer Time),1629218273498,43.353116666666665,55,main
2646,2292,26,What a delight!,shape,correct,right,1629220874685,no target,256,male,69,s,German,15,images/main/feature/15/no_target/F_C_15_NT_5.jpg,Tue Aug 17 2021 17:37:53 GMT+0100 (British Summer Time),1629218273498,43.353116666666665,56,main
2646,1296,26,What a delight!,shape,correct,right,1629220874685,no target,256,male,70,s,German,15,images/main/feature/15/no_target/F_C_15_NT_6.jpg,Tue Aug 17 2021 17:37:53 GMT+0100 (British Summer Time),1629218273498,43.353116666666665,57,main
2646,1336,26,What a delight!,shape,correct,right,1629220874685,no target,256,male,53,s,German,5,images/main/feature/5/no_target/F_C_5_NT_5.jpg,Tue Aug 17 2021 17:37:53 GMT+0100 (British Summer Time),1629218273498,43.353116666666665,58,main
2646,1079,26,What a delight!,color,correct,right,1629220874685,target,256,male,73,l,German,30,images/main/feature/30/target/F_C_30_T_1_Tblue.jpg,Tue Aug 17 2021 17:37:53 GMT+0100 (British Summer Time),1629218273498,43.353116666666665,59,main
2646,1168,26,What a delight!,shape,correct,right,1629220874685,target,256,male,60,l,German,15,images/main/feature/15/target/F_C_15_T_4_Sbrown.jpg,Tue Aug 17 2021 17:37:53 GMT+0100 (British Summer Time),1629218273498,43.353116666666665,60,main
2646,1236,26,What a delight!,color,correct,right,1629220874685,no target,256,male,50,s,German,5,images/main/feature/5/no_target/F_C_5_NT_2.jpg,Tue Aug 17 2021 17:37:53 GMT+0100 (British Summer Time),1629218273498,43.353116666666665,61,main
2646,1633,26,What a delight!,shape,correct,right,1629220874685,target,256,male,75,l,German,30,images/main/feature/30/target/F_C_30_T_3_Sbrown.jpg,Tue Aug 17 2021 17:37:53 GMT+0100 (British Summer Time),1629218273498,43.353116666666665,62,main
2646,1905,26,What a delight!,color,correct,right,1629220874685,no target,256,male,49,s,German,5,images/main/feature/5/no_target/F_C_5_NT_1.jpg,Tue Aug 17 2021 17:37:53 GMT+0100 (British Summer Time),1629218273498,43.353116666666665,63,main
2646,982,26,What a delight!,shape,correct,right,1629220874685,target,256,male,63,l,German,15,images/main/feature/15/target/F_C_15_T_7_Sgreen.jpg,Tue Aug 17 2021 17:37:53 GMT+0100 (British Summer Time),1629218273498,43.353116666666665,64,main
2646,1142,26,What a delight!,shape,correct,right,1629220874685,target,256,male,60,l,German,15,images/main/feature/15/target/F_C_15_T_4_Sbrown.jpg,Tue Aug 17 2021 17:37:53 GMT+0100 (British Summer Time),1629218273498,43.353116666666665,1,main
2646,1038,26,What a delight!,color,correct,right,1629220874685,target,256,male,41,l,German,5,images/main/feature/5/target/F_C_5_T_1_Tblue.jpg,Tue Aug 17 2021 17:37:53 GMT+0100 (British Summer Time),1629218273498,43.353116666666665,2,main
2646,2423,26,What a delight!,color,correct,right,1629220874685,no target,256,male,66,s,German,15,images/main/feature/15/no_target/F_C_15_NT_2.jpg,Tue Aug 17 2021 17:37:53 GMT+0100 (British Summer Time),1629218273498,43.353116666666665,3,main
2646,735,26,What a delight!,shape,correct,right,1629220874685,target,256,male,32,l,German,1,images/main/feature/1/target/F_C_1_T_8_Sgreen.jpg,Tue Aug 17 2021 17:37:53 GMT+0100 (British Summer Time),1629218273498,43.353116666666665,4,main
2646,877,26,What a delight!,shape,correct,right,1629220874685,target,256,male,64,l,German,15,images/main/feature/15/target/F_C_15_T_8_Sgreen.jpg,Tue Aug 17 2021 17:37:53 GMT+0100 (British Summer Time),1629218273498,43.353116666666665,5,main
2646,2226,26,What a delight!,color,correct,right,1629220874685,no target,256,male,33,s,German,1,images/main/feature/1/no_target/F_C_1_NT_1.jpg,Tue Aug 17 2021 17:37:53 GMT+0100 (British Summer Time),1629218273498,43.353116666666665,6,main
2646,1929,26,What a delight!,shape,correct,right,1629220874685,target,256,male,63,l,German,15,images/main/feature/15/target/F_C_15_T_7_Sgreen.jpg,Tue Aug 17 2021 17:37:53 GMT+0100 (British Summer Time),1629218273498,43.353116666666665,7,main
2646,913,26,What a delight!,color,correct,right,1629220874685,target,256,male,25,l,German,1,images/main/feature/1/target/F_C_1_T_1_Tblue.jpg,Tue Aug 17 2021 17:37:53 GMT+0100 (British Summer Time),1629218273498,43.353116666666665,8,main
2646,696,26,What a delight!,color,correct,right,1629220874685,target,256,male,45,l,German,5,images/main/feature/5/target/F_C_5_T_5_Xblue.jpg,Tue Aug 17 2021 17:37:53 GMT+0100 (British Summer Time),1629218273498,43.353116666666665,9,main
2646,1616,26,What a delight!,shape,correct,right,1629220874685,no target,256,male,86,s,German,30,images/main/feature/30/no_target/F_C_30_NT_6.jpg,Tue Aug 17 2021 17:37:53 GMT+0100 (British Summer Time),1629218273498,43.353116666666665,10,main
2646,1222,26,What a delight!,shape,incorrect,right,1629220874685,target,256,male,48,s,German,5,images/main/feature/5/target/F_C_5_T_8_Sgreen.jpg,Tue Aug 17 2021 17:37:53 GMT+0100 (British Summer Time),1629218273498,43.353116666666665,11,main
2646,720,26,What a delight!,color,correct,right,1629220874685,no target,256,male,34,s,German,1,images/main/feature/1/no_target/F_C_1_NT_2.jpg,Tue Aug 17 2021 17:37:53 GMT+0100 (British Summer Time),1629218273498,43.353116666666665,12,main
2646,658,26,What a delight!,shape,correct,right,1629220874685,target,256,male,27,l,German,1,images/main/feature/1/target/F_C_1_T_3_Sbrown.jpg,Tue Aug 17 2021 17:37:53 GMT+0100 (British Summer Time),1629218273498,43.353116666666665,13,main
2646,869,26,What a delight!,shape,correct,right,1629220874685,no target,256,male,38,s,German,1,images/main/feature/1/no_target/F_C_1_NT_6.jpg,Tue Aug 17 2021 17:37:53 GMT+0100 (British Summer Time),1629218273498,43.353116666666665,14,main
2646,1256,26,What a delight!,color,correct,right,1629220874685,no target,256,male,81,s,German,30,images/main/feature/30/no_target/F_C_30_NT_1.jpg,Tue Aug 17 2021 17:37:53 GMT+0100 (British Summer Time),1629218273498,43.353116666666665,15,main
2646,1893,26,What a delight!,shape,correct,right,1629220874685,no target,256,male,87,s,German,30,images/main/feature/30/no_target/F_C_30_NT_7.jpg,Tue Aug 17 2021 17:37:53 GMT+0100 (British Summer Time),1629218273498,43.353116666666665,16,main
2646,1294,26,What a delight!,color,correct,right,1629220874685,no target,256,male,82,s,German,30,images/main/feature/30/no_target/F_C_30_NT_2.jpg,Tue Aug 17 2021 17:37:53 GMT+0100 (British Summer Time),1629218273498,43.353116666666665,17,main
2646,847,26,What a delight!,color,correct,right,1629220874685,target,256,male,58,l,German,15,images/main/feature/15/target/F_C_15_T_2_Tblue.jpg,Tue Aug 17 2021 17:37:53 GMT+0100 (British Summer Time),1629218273498,43.353116666666665,18,main
2646,1149,26,What a delight!,shape,correct,right,1629220874685,no target,256,male,85,s,German,30,images/main/feature/30/no_target/F_C_30_NT_5.jpg,Tue Aug 17 2021 17:37:53 GMT+0100 (British Summer Time),1629218273498,43.353116666666665,19,main
2646,2354,26,What a delight!,color,correct,right,1629220874685,no target,256,male,84,s,German,30,images/main/feature/30/no_target/F_C_30_NT_4.jpg,Tue Aug 17 2021 17:37:53 GMT+0100 (British Summer Time),1629218273498,43.353116666666665,20,main
2646,1824,26,What a delight!,shape,correct,right,1629220874685,no target,256,male,39,s,German,1,images/main/feature/1/no_target/F_C_1_NT_7.jpg,Tue Aug 17 2021 17:37:53 GMT+0100 (British Summer Time),1629218273498,43.353116666666665,21,main
2646,775,26,What a delight!,shape,correct,right,1629220874685,no target,256,male,53,s,German,5,images/main/feature/5/no_target/F_C_5_NT_5.jpg,Tue Aug 17 2021 17:37:53 GMT+0100 (British Summer Time),1629218273498,43.353116666666665,22,main
2646,943,26,What a delight!,color,correct,right,1629220874685,no target,256,male,52,s,German,5,images/main/feature/5/no_target/F_C_5_NT_4.jpg,Tue Aug 17 2021 17:37:53 GMT+0100 (British Summer Time),1629218273498,43.353116666666665,23,main
2646,478,26,What a delight!,color,correct,right,1629220874685,target,256,male,73,l,German,30,images/main/feature/30/target/F_C_30_T_1_Tblue.jpg,Tue Aug 17 2021 17:37:53 GMT+0100 (British Summer Time),1629218273498,43.353116666666665,24,main
2646,769,26,What a delight!,color,correct,right,1629220874685,target,256,male,74,l,German,30,images/main/feature/30/target/F_C_30_T_2_Tblue.jpg,Tue Aug 17 2021 17:37:53 GMT+0100 (British Summer Time),1629218273498,43.353116666666665,25,main
2646,790,26,What a delight!,color,correct,right,1629220874685,target,256,male,30,l,German,1,images/main/feature/1/target/F_C_1_T_6_XBlue.jpg,Tue Aug 17 2021 17:37:53 GMT+0100 (British Summer Time),1629218273498,43.353116666666665,26,main
2646,1117,26,What a delight!,color,correct,right,1629220874685,target,256,male,42,l,German,5,images/main/feature/5/target/F_C_5_T_2_Tblue.jpg,Tue Aug 17 2021 17:37:53 GMT+0100 (British Summer Time),1629218273498,43.353116666666665,27,main
2646,1266,26,What a delight!,shape,correct,right,1629220874685,no target,256,male,37,s,German,1,images/main/feature/1/no_target/F_C_1_NT_5.jpg,Tue Aug 17 2021 17:37:53 GMT+0100 (British Summer Time),1629218273498,43.353116666666665,28,main
2646,721,26,What a delight!,shape,correct,right,1629220874685,target,256,male,31,l,German,1,images/main/feature/1/target/F_C_1_T_7_Sgreen.jpg,Tue Aug 17 2021 17:37:53 GMT+0100 (British Summer Time),1629218273498,43.353116666666665,29,main
2646,729,26,What a delight!,color,correct,right,1629220874685,target,256,male,61,l,German,15,images/main/feature/15/target/F_C_15_T_5_Xblue.jpg,Tue Aug 17 2021 17:37:53 GMT+0100 (British Summer Time),1629218273498,43.353116666666665,30,main
2646,1077,26,What a delight!,shape,correct,right,1629220874685,no target,256,male,69,s,German,15,images/main/feature/15/no_target/F_C_15_NT_5.jpg,Tue Aug 17 2021 17:37:53 GMT+0100 (British Summer Time),1629218273498,43.353116666666665,31,main
2646,682,26,What a delight!,shape,correct,right,1629220874685,target,256,male,44,l,German,5,images/main/feature/5/target/F_C_5_T_4_Sbrown.jpg,Tue Aug 17 2021 17:37:53 GMT+0100 (British Summer Time),1629218273498,43.353116666666665,32,main
2646,779,26,What a delight!,color,correct,right,1629220874685,target,256,male,46,l,German,5,images/main/feature/5/target/F_C_5_T_6_Xblue.jpg,Tue Aug 17 2021 17:37:53 GMT+0100 (British Summer Time),1629218273498,43.353116666666665,33,main
2646,855,26,What a delight!,shape,correct,right,1629220874685,target,256,male,59,l,German,15,images/main/feature/15/target/F_C_15_T_3_Sbrown.jpg,Tue Aug 17 2021 17:37:53 GMT+0100 (British Summer Time),1629218273498,43.353116666666665,34,main
2646,2358,26,What a delight!,shape,correct,right,1629220874685,target,256,male,75,l,German,30,images/main/feature/30/target/F_C_30_T_3_Sbrown.jpg,Tue Aug 17 2021 17:37:53 GMT+0100 (British Summer Time),1629218273498,43.353116666666665,35,main
2646,1126,26,What a delight!,shape,correct,right,1629220874685,target,256,male,80,l,German,30,images/main/feature/30/target/F_C_30_T_8_Sgreen.jpg,Tue Aug 17 2021 17:37:53 GMT+0100 (British Summer Time),1629218273498,43.353116666666665,36,main
2646,1091,26,What a delight!,shape,correct,right,1629220874685,no target,256,male,40,s,German,1,images/main/feature/1/no_target/F_C_1_NT_8.jpg,Tue Aug 17 2021 17:37:53 GMT+0100 (British Summer Time),1629218273498,43.353116666666665,37,main
2646,827,26,What a delight!,color,correct,right,1629220874685,target,256,male,29,l,German,1,images/main/feature/1/target/F_C_1_T_5_XBlue.jpg,Tue Aug 17 2021 17:37:53 GMT+0100 (British Summer Time),1629218273498,43.353116666666665,38,main
2646,1158,26,What a delight!,color,correct,right,1629220874685,no target,256,male,51,s,German,5,images/main/feature/5/no_target/F_C_5_NT_3.jpg,Tue Aug 17 2021 17:37:53 GMT+0100 (British Summer Time),1629218273498,43.353116666666665,39,main
2646,2230,26,What a delight!,shape,correct,right,1629220874685,no target,256,male,88,s,German,30,images/main/feature/30/no_target/F_C_30_NT_8.jpg,Tue Aug 17 2021 17:37:53 GMT+0100 (British Summer Time),1629218273498,43.353116666666665,40,main
2646,1192,26,What a delight!,shape,correct,right,1629220874685,no target,256,male,54,s,German,5,images/main/feature/5/no_target/F_C_5_NT_6.jpg,Tue Aug 17 2021 17:37:53 GMT+0100 (British Summer Time),1629218273498,43.353116666666665,41,main
2646,1223,26,What a delight!,color,incorrect,right,1629220874685,target,256,male,26,s,German,1,images/main/feature/1/target/F_C_1_T_2_Tblue.jpg,Tue Aug 17 2021 17:37:53 GMT+0100 (British Summer Time),1629218273498,43.353116666666665,42,main
2646,928,26,What a delight!,shape,correct,right,1629220874685,no target,256,male,55,s,German,5,images/main/feature/5/no_target/F_C_5_NT_7.jpg,Tue Aug 17 2021 17:37:53 GMT+0100 (British Summer Time),1629218273498,43.353116666666665,43,main
2646,1838,26,What a delight!,shape,incorrect,right,1629220874685,target,256,male,47,s,German,5,images/main/feature/5/target/F_C_5_T_7_Sgreen.jpg,Tue Aug 17 2021 17:37:53 GMT+0100 (British Summer Time),1629218273498,43.353116666666665,44,main
2646,714,26,What a delight!,shape,correct,right,1629220874685,target,256,male,76,l,German,30,images/main/feature/30/target/F_C_30_T_4_Sbrown.jpg,Tue Aug 17 2021 17:37:53 GMT+0100 (British Summer Time),1629218273498,43.353116666666665,45,main
2646,966,26,What a delight!,color,correct,right,1629220874685,no target,256,male,49,s,German,5,images/main/feature/5/no_target/F_C_5_NT_1.jpg,Tue Aug 17 2021 17:37:53 GMT+0100 (British Summer Time),1629218273498,43.353116666666665,46,main
2646,836,26,What a delight!,shape,correct,right,1629220874685,no target,256,male,56,s,German,5,images/main/feature/5/no_target/F_C_5_NT_8.jpg,Tue Aug 17 2021 17:37:53 GMT+0100 (British Summer Time),1629218273498,43.353116666666665,47,main
2646,990,26,What a delight!,shape,correct,right,1629220874685,no target,256,male,72,s,German,15,images/main/feature/15/no_target/F_C_15_NT_8.jpg,Tue Aug 17 2021 17:37:53 GMT+0100 (British Summer Time),1629218273498,43.353116666666665,48,main
2646,1233,26,What a delight!,color,correct,right,1629220874685,no target,256,male,50,s,German,5,images/main/feature/5/no_target/F_C_5_NT_2.jpg,Tue Aug 17 2021 17:37:53 GMT+0100 (British Summer Time),1629218273498,43.353116666666665,49,main
2646,911,26,What a delight!,color,correct,right,1629220874685,no target,256,male,68,s,German,15,images/main/feature/15/no_target/F_C_15_NT_4.jpg,Tue Aug 17 2021 17:37:53 GMT+0100 (British Summer Time),1629218273498,43.353116666666665,50,main
2646,782,26,What a delight!,color,correct,right,1629220874685,target,256,male,57,l,German,15,images/main/feature/15/target/F_C_15_T_1_Tblue.jpg,Tue Aug 17 2021 17:37:53 GMT+0100 (British Summer Time),1629218273498,43.353116666666665,51,main
2646,831,26,What a delight!,color,correct,right,1629220874685,no target,256,male,36,s,German,1,images/main/feature/1/no_target/F_C_1_NT_4.jpg,Tue Aug 17 2021 17:37:53 GMT+0100 (British Summer Time),1629218273498,43.353116666666665,52,main
2646,962,26,What a delight!,shape,correct,right,1629220874685,no target,256,male,71,s,German,15,images/main/feature/15/no_target/F_C_15_NT_7.jpg,Tue Aug 17 2021 17:37:53 GMT+0100 (British Summer Time),1629218273498,43.353116666666665,53,main
2646,727,26,What a delight!,color,correct,right,1629220874685,target,256,male,78,l,German,30,images/main/feature/30/target/F_C_30_T_6_Xblue.jpg,Tue Aug 17 2021 17:37:53 GMT+0100 (British Summer Time),1629218273498,43.353116666666665,54,main
2646,891,26,What a delight!,shape,correct,right,1629220874685,no target,256,male,70,s,German,15,images/main/feature/15/no_target/F_C_15_NT_6.jpg,Tue Aug 17 2021 17:37:53 GMT+0100 (British Summer Time),1629218273498,43.353116666666665,55,main
2646,1504,26,What a delight!,color,correct,right,1629220874685,no target,256,male,83,s,German,30,images/main/feature/30/no_target/F_C_30_NT_3.jpg,Tue Aug 17 2021 17:37:53 GMT+0100 (British Summer Time),1629218273498,43.353116666666665,56,main
2646,911,26,What a delight!,color,correct,right,1629220874685,target,256,male,62,l,German,15,images/main/feature/15/target/F_C_15_T_6_Xblue.jpg,Tue Aug 17 2021 17:37:53 GMT+0100 (British Summer Time),1629218273498,43.353116666666665,57,main
2646,1072,26,What a delight!,shape,incorrect,right,1629220874685,target,256,male,28,s,German,1,images/main/feature/1/target/F_C_1_T_4_Sbrown.jpg,Tue Aug 17 2021 17:37:53 GMT+0100 (British Summer Time),1629218273498,43.353116666666665,58,main
2646,856,26,What a delight!,shape,correct,right,1629220874685,target,256,male,79,l,German,30,images/main/feature/30/target/F_C_30_T_7_Sgreen.jpg,Tue Aug 17 2021 17:37:53 GMT+0100 (British Summer Time),1629218273498,43.353116666666665,59,main
2646,777,26,What a delight!,color,correct,right,1629220874685,target,256,male,77,l,German,30,images/main/feature/30/target/F_C_30_T_5_Xblue.jpg,Tue Aug 17 2021 17:37:53 GMT+0100 (British Summer Time),1629218273498,43.353116666666665,60,main
2646,1167,26,What a delight!,color,correct,right,1629220874685,no target,256,male,67,s,German,15,images/main/feature/15/no_target/F_C_15_NT_3.jpg,Tue Aug 17 2021 17:37:53 GMT+0100 (British Summer Time),1629218273498,43.353116666666665,61,main
2646,669,26,What a delight!,shape,correct,right,1629220874685,target,256,male,43,l,German,5,images/main/feature/5/target/F_C_5_T_3_Sbrown.jpg,Tue Aug 17 2021 17:37:53 GMT+0100 (British Summer Time),1629218273498,43.353116666666665,62,main
2646,1127,26,What a delight!,color,correct,right,1629220874685,no target,256,male,35,s,German,1,images/main/feature/1/no_target/F_C_1_NT_3.jpg,Tue Aug 17 2021 17:37:53 GMT+0100 (British Summer Time),1629218273498,43.353116666666665,63,main
2646,1384,26,What a delight!,color,correct,right,1629220874685,no target,256,male,65,s,German,15,images/main/feature/15/no_target/F_C_15_NT_1.jpg,Tue Aug 17 2021 17:37:53 GMT+0100 (British Summer Time),1629218273498,43.353116666666665,64,main
2646,1026,26,What a delight!,conjunction,correct,right,1629220874685,target,256,male,159,l,German,1,images/main/conjunction/1/target/C_1_T_7.jpg,Tue Aug 17 2021 17:37:53 GMT+0100 (British Summer Time),1629218273498,43.353116666666665,1,main
2646,1098,26,What a delight!,conjunction,correct,right,1629220874685,target,256,male,175,l,German,5,images/main/conjunction/5/target/C_5_T_7.jpg,Tue Aug 17 2021 17:37:53 GMT+0100 (British Summer Time),1629218273498,43.353116666666665,2,main
2646,1678,26,What a delight!,conjunction,correct,right,1629220874685,no target,256,male,166,s,German,1,images/main/conjunction/1/no_target/C_1_NT_6.jpg,Tue Aug 17 2021 17:37:53 GMT+0100 (British Summer Time),1629218273498,43.353116666666665,3,main
2646,1413,26,What a delight!,conjunction,correct,right,1629220874685,no target,256,male,177,s,German,5,images/main/conjunction/5/no_target/C_5_NT_1.jpg,Tue Aug 17 2021 17:37:53 GMT+0100 (British Summer Time),1629218273498,43.353116666666665,4,main
2646,1623,26,What a delight!,conjunction,correct,right,1629220874685,no target,256,male,181,s,German,5,images/main/conjunction/5/no_target/C_5_NT_5.jpg,Tue Aug 17 2021 17:37:53 GMT+0100 (British Summer Time),1629218273498,43.353116666666665,5,main
2646,1223,26,What a delight!,conjunction,correct,right,1629220874685,no target,256,male,164,s,German,1,images/main/conjunction/1/no_target/C_1_NT_4.jpg,Tue Aug 17 2021 17:37:53 GMT+0100 (British Summer Time),1629218273498,43.353116666666665,6,main
2646,3823,26,What a delight!,conjunction,correct,right,1629220874685,no target,256,male,167,s,German,1,images/main/conjunction/1/no_target/C_1_NT_7.jpg,Tue Aug 17 2021 17:37:53 GMT+0100 (British Summer Time),1629218273498,43.353116666666665,7,main
2646,1518,26,What a delight!,conjunction,correct,right,1629220874685,target,256,male,202,l,German,30,images/main/conjunction/30/target/C_30_T_2.jpg,Tue Aug 17 2021 17:37:53 GMT+0100 (British Summer Time),1629218273498,43.353116666666665,8,main
2646,1414,26,What a delight!,conjunction,correct,right,1629220874685,target,256,male,192,l,German,15,images/main/conjunction/15/target/C_15_T_8.jpg,Tue Aug 17 2021 17:37:53 GMT+0100 (British Summer Time),1629218273498,43.353116666666665,9,main
2646,1362,26,What a delight!,conjunction,correct,right,1629220874685,no target,256,male,196,s,German,15,images/main/conjunction/15/no_target/C_15_NT_4.jpg,Tue Aug 17 2021 17:37:53 GMT+0100 (British Summer Time),1629218273498,43.353116666666665,10,main
2646,1116,26,What a delight!,conjunction,correct,right,1629220874685,no target,256,male,179,s,German,5,images/main/conjunction/5/no_target/C_5_NT_3.jpg,Tue Aug 17 2021 17:37:53 GMT+0100 (British Summer Time),1629218273498,43.353116666666665,11,main
2646,1091,26,What a delight!,conjunction,correct,right,1629220874685,target,256,male,189,l,German,15,images/main/conjunction/15/target/C_15_T_5.jpg,Tue Aug 17 2021 17:37:53 GMT+0100 (British Summer Time),1629218273498,43.353116666666665,12,main
2646,1347,26,What a delight!,conjunction,correct,right,1629220874685,no target,256,male,197,s,German,15,images/main/conjunction/15/no_target/C_15_NT_5.jpg,Tue Aug 17 2021 17:37:53 GMT+0100 (British Summer Time),1629218273498,43.353116666666665,13,main
2646,894,26,What a delight!,conjunction,correct,right,1629220874685,target,256,male,154,l,German,1,images/main/conjunction/1/target/C_1_T_2.jpg,Tue Aug 17 2021 17:37:53 GMT+0100 (British Summer Time),1629218273498,43.353116666666665,14,main
2646,910,26,What a delight!,conjunction,correct,right,1629220874685,target,256,male,173,l,German,5,images/main/conjunction/5/target/C_5_T_5.jpg,Tue Aug 17 2021 17:37:53 GMT+0100 (British Summer Time),1629218273498,43.353116666666665,15,main
2646,2181,26,What a delight!,conjunction,correct,right,1629220874685,no target,256,male,163,s,German,1,images/main/conjunction/1/no_target/C_1_NT_3.jpg,Tue Aug 17 2021 17:37:53 GMT+0100 (British Summer Time),1629218273498,43.353116666666665,16,main
2646,998,26,What a delight!,conjunction,correct,right,1629220874685,target,256,male,156,l,German,1,images/main/conjunction/1/target/C_1_T_4.jpg,Tue Aug 17 2021 17:37:53 GMT+0100 (British Summer Time),1629218273498,43.353116666666665,17,main
2646,3001,26,What a delight!,conjunction,correct,right,1629220874685,target,256,male,190,l,German,15,images/main/conjunction/15/target/C_15_T_6.jpg,Tue Aug 17 2021 17:37:53 GMT+0100 (British Summer Time),1629218273498,43.353116666666665,18,main
2646,2050,26,What a delight!,conjunction,correct,right,1629220874685,no target,256,male,213,s,German,30,images/main/conjunction/30/no_target/C_30_NT_5.jpg,Tue Aug 17 2021 17:37:53 GMT+0100 (British Summer Time),1629218273498,43.353116666666665,19,main
2646,2771,26,What a delight!,conjunction,correct,right,1629220874685,target,256,male,170,l,German,5,images/main/conjunction/5/target/C_5_T_2.jpg,Tue Aug 17 2021 17:37:53 GMT+0100 (British Summer Time),1629218273498,43.353116666666665,20,main
2646,1357,26,What a delight!,conjunction,correct,right,1629220874685,target,256,male,176,l,German,5,images/main/conjunction/5/target/C_5_T_8.jpg,Tue Aug 17 2021 17:37:53 GMT+0100 (British Summer Time),1629218273498,43.353116666666665,21,main
2646,1422,26,What a delight!,conjunction,correct,right,1629220874685,target,256,male,188,l,German,15,images/main/conjunction/15/target/C_15_T_4.jpg,Tue Aug 17 2021 17:37:53 GMT+0100 (British Summer Time),1629218273498,43.353116666666665,22,main
2646,1600,26,What a delight!,conjunction,correct,right,1629220874685,target,256,male,208,l,German,30,images/main/conjunction/30/target/C_30_T_8.jpg,Tue Aug 17 2021 17:37:53 GMT+0100 (British Summer Time),1629218273498,43.353116666666665,23,main
2646,2461,26,What a delight!,conjunction,correct,right,1629220874685,no target,256,male,215,s,German,30,images/main/conjunction/30/no_target/C_30_NT_7.jpg,Tue Aug 17 2021 17:37:53 GMT+0100 (British Summer Time),1629218273498,43.353116666666665,24,main
2646,1087,26,What a delight!,conjunction,correct,right,1629220874685,no target,256,male,178,s,German,5,images/main/conjunction/5/no_target/C_5_NT_2.jpg,Tue Aug 17 2021 17:37:53 GMT+0100 (British Summer Time),1629218273498,43.353116666666665,25,main
2646,1375,26,What a delight!,conjunction,correct,right,1629220874685,target,256,male,206,l,German,30,images/main/conjunction/30/target/C_30_T_6.jpg,Tue Aug 17 2021 17:37:53 GMT+0100 (British Summer Time),1629218273498,43.353116666666665,26,main
2646,1289,26,What a delight!,conjunction,correct,right,1629220874685,no target,256,male,161,s,German,1,images/main/conjunction/1/no_target/C_1_NT_1.jpg,Tue Aug 17 2021 17:37:53 GMT+0100 (British Summer Time),1629218273498,43.353116666666665,27,main
2646,3097,26,What a delight!,conjunction,correct,right,1629220874685,no target,256,male,216,s,German,30,images/main/conjunction/30/no_target/C_30_NT_8.jpg,Tue Aug 17 2021 17:37:53 GMT+0100 (British Summer Time),1629218273498,43.353116666666665,28,main
2646,1904,26,What a delight!,conjunction,correct,right,1629220874685,no target,256,male,180,s,German,5,images/main/conjunction/5/no_target/C_5_NT_4.jpg,Tue Aug 17 2021 17:37:53 GMT+0100 (British Summer Time),1629218273498,43.353116666666665,29,main
2646,1628,26,What a delight!,conjunction,correct,right,1629220874685,no target,256,male,168,s,German,1,images/main/conjunction/1/no_target/C_1_NT_8.jpg,Tue Aug 17 2021 17:37:53 GMT+0100 (British Summer Time),1629218273498,43.353116666666665,30,main
2646,1671,26,What a delight!,conjunction,correct,right,1629220874685,no target,256,male,200,s,German,15,images/main/conjunction/15/no_target/C_15_NT_8.jpg,Tue Aug 17 2021 17:37:53 GMT+0100 (British Summer Time),1629218273498,43.353116666666665,31,main
2646,2632,26,What a delight!,conjunction,correct,right,1629220874685,no target,256,male,195,s,German,15,images/main/conjunction/15/no_target/C_15_NT_3.jpg,Tue Aug 17 2021 17:37:53 GMT+0100 (British Summer Time),1629218273498,43.353116666666665,32,main
2646,3098,26,What a delight!,conjunction,incorrect,right,1629220874685,target,256,male,207,s,German,30,images/main/conjunction/30/target/C_30_T_7.jpg,Tue Aug 17 2021 17:37:53 GMT+0100 (British Summer Time),1629218273498,43.353116666666665,33,main
2646,1914,26,What a delight!,conjunction,correct,right,1629220874685,no target,256,male,212,s,German,30,images/main/conjunction/30/no_target/C_30_NT_4.jpg,Tue Aug 17 2021 17:37:53 GMT+0100 (British Summer Time),1629218273498,43.353116666666665,34,main
2646,3040,26,What a delight!,conjunction,correct,right,1629220874685,no target,256,male,182,s,German,5,images/main/conjunction/5/no_target/C_5_NT_6.jpg,Tue Aug 17 2021 17:37:53 GMT+0100 (British Summer Time),1629218273498,43.353116666666665,35,main
2646,1191,26,What a delight!,conjunction,correct,right,1629220874685,target,256,male,204,l,German,30,images/main/conjunction/30/target/C_30_T_4.jpg,Tue Aug 17 2021 17:37:53 GMT+0100 (British Summer Time),1629218273498,43.353116666666665,36,main
2646,1868,26,What a delight!,conjunction,correct,right,1629220874685,target,256,male,205,l,German,30,images/main/conjunction/30/target/C_30_T_5.jpg,Tue Aug 17 2021 17:37:53 GMT+0100 (British Summer Time),1629218273498,43.353116666666665,37,main
2646,1128,26,What a delight!,conjunction,correct,right,1629220874685,no target,256,male,194,s,German,15,images/main/conjunction/15/no_target/C_15_NT_2.jpg,Tue Aug 17 2021 17:37:53 GMT+0100 (British Summer Time),1629218273498,43.353116666666665,38,main
2646,1808,26,What a delight!,conjunction,correct,right,1629220874685,no target,256,male,199,s,German,15,images/main/conjunction/15/no_target/C_15_NT_7.jpg,Tue Aug 17 2021 17:37:53 GMT+0100 (British Summer Time),1629218273498,43.353116666666665,39,main
2646,3741,26,What a delight!,conjunction,correct,right,1629220874685,no target,256,male,214,s,German,30,images/main/conjunction/30/no_target/C_30_NT_6.jpg,Tue Aug 17 2021 17:37:53 GMT+0100 (British Summer Time),1629218273498,43.353116666666665,40,main
2646,1007,26,What a delight!,conjunction,correct,right,1629220874685,target,256,male,169,l,German,5,images/main/conjunction/5/target/C_5_T_1.jpg,Tue Aug 17 2021 17:37:53 GMT+0100 (British Summer Time),1629218273498,43.353116666666665,41,main
2646,2496,26,What a delight!,conjunction,correct,right,1629220874685,no target,256,male,184,s,German,5,images/main/conjunction/5/no_target/C_5_NT_8.jpg,Tue Aug 17 2021 17:37:53 GMT+0100 (British Summer Time),1629218273498,43.353116666666665,42,main
2646,1135,26,What a delight!,conjunction,correct,right,1629220874685,target,256,male,171,l,German,5,images/main/conjunction/5/target/C_5_T_3.jpg,Tue Aug 17 2021 17:37:53 GMT+0100 (British Summer Time),1629218273498,43.353116666666665,43,main
2646,920,26,What a delight!,conjunction,correct,right,1629220874685,target,256,male,172,l,German,5,images/main/conjunction/5/target/C_5_T_4.jpg,Tue Aug 17 2021 17:37:53 GMT+0100 (British Summer Time),1629218273498,43.353116666666665,44,main
2646,2678,26,What a delight!,conjunction,correct,right,1629220874685,no target,256,male,209,s,German,30,images/main/conjunction/30/no_target/C_30_NT_1.jpg,Tue Aug 17 2021 17:37:53 GMT+0100 (British Summer Time),1629218273498,43.353116666666665,45,main
2646,1855,26,What a delight!,conjunction,correct,right,1629220874685,target,256,male,201,l,German,30,images/main/conjunction/30/target/C_30_T_1.jpg,Tue Aug 17 2021 17:37:53 GMT+0100 (British Summer Time),1629218273498,43.353116666666665,46,main
2646,1718,26,What a delight!,conjunction,correct,right,1629220874685,no target,256,male,162,s,German,1,images/main/conjunction/1/no_target/C_1_NT_2.jpg,Tue Aug 17 2021 17:37:53 GMT+0100 (British Summer Time),1629218273498,43.353116666666665,47,main
2646,1752,26,What a delight!,conjunction,correct,right,1629220874685,no target,256,male,165,s,German,1,images/main/conjunction/1/no_target/C_1_NT_5.jpg,Tue Aug 17 2021 17:37:53 GMT+0100 (British Summer Time),1629218273498,43.353116666666665,48,main
2646,951,26,What a delight!,conjunction,correct,right,1629220874685,target,256,male,185,l,German,15,images/main/conjunction/15/target/C_15_T_1.jpg,Tue Aug 17 2021 17:37:53 GMT+0100 (British Summer Time),1629218273498,43.353116666666665,49,main
2646,1863,26,What a delight!,conjunction,correct,right,1629220874685,target,256,male,160,l,German,1,images/main/conjunction/1/target/C_1_T_8.jpg,Tue Aug 17 2021 17:37:53 GMT+0100 (British Summer Time),1629218273498,43.353116666666665,50,main
2646,3153,26,What a delight!,conjunction,correct,right,1629220874685,no target,256,male,210,s,German,30,images/main/conjunction/30/no_target/C_30_NT_2.jpg,Tue Aug 17 2021 17:37:53 GMT+0100 (British Summer Time),1629218273498,43.353116666666665,51,main
2646,1244,26,What a delight!,conjunction,correct,right,1629220874685,target,256,male,186,l,German,15,images/main/conjunction/15/target/C_15_T_2.jpg,Tue Aug 17 2021 17:37:53 GMT+0100 (British Summer Time),1629218273498,43.353116666666665,52,main
2646,1341,26,What a delight!,conjunction,correct,right,1629220874685,target,256,male,155,l,German,1,images/main/conjunction/1/target/C_1_T_3.jpg,Tue Aug 17 2021 17:37:53 GMT+0100 (British Summer Time),1629218273498,43.353116666666665,53,main
2646,1656,26,What a delight!,conjunction,correct,right,1629220874685,target,256,male,153,l,German,1,images/main/conjunction/1/target/C_1_T_1.jpg,Tue Aug 17 2021 17:37:53 GMT+0100 (British Summer Time),1629218273498,43.353116666666665,54,main
2646,1154,26,What a delight!,conjunction,correct,right,1629220874685,target,256,male,157,l,German,1,images/main/conjunction/1/target/C_1_T_5.jpg,Tue Aug 17 2021 17:37:53 GMT+0100 (British Summer Time),1629218273498,43.353116666666665,55,main
2646,2609,26,What a delight!,conjunction,correct,right,1629220874685,target,256,male,191,l,German,15,images/main/conjunction/15/target/C_15_T_7.jpg,Tue Aug 17 2021 17:37:53 GMT+0100 (British Summer Time),1629218273498,43.353116666666665,56,main
2646,2159,26,What a delight!,conjunction,correct,right,1629220874685,no target,256,male,198,s,German,15,images/main/conjunction/15/no_target/C_15_NT_6.jpg,Tue Aug 17 2021 17:37:53 GMT+0100 (British Summer Time),1629218273498,43.353116666666665,57,main
2646,2487,26,What a delight!,conjunction,correct,right,1629220874685,no target,256,male,211,s,German,30,images/main/conjunction/30/no_target/C_30_NT_3.jpg,Tue Aug 17 2021 17:37:53 GMT+0100 (British Summer Time),1629218273498,43.353116666666665,58,main
2646,2363,26,What a delight!,conjunction,correct,right,1629220874685,target,256,male,203,l,German,30,images/main/conjunction/30/target/C_30_T_3.jpg,Tue Aug 17 2021 17:37:53 GMT+0100 (British Summer Time),1629218273498,43.353116666666665,59,main
2646,1222,26,What a delight!,conjunction,correct,right,1629220874685,target,256,male,187,l,German,15,images/main/conjunction/15/target/C_15_T_3.jpg,Tue Aug 17 2021 17:37:53 GMT+0100 (British Summer Time),1629218273498,43.353116666666665,60,main
2646,1581,26,What a delight!,conjunction,correct,right,1629220874685,no target,256,male,193,s,German,15,images/main/conjunction/15/no_target/C_15_NT_1.jpg,Tue Aug 17 2021 17:37:53 GMT+0100 (British Summer Time),1629218273498,43.353116666666665,61,main
2646,2858,26,What a delight!,conjunction,correct,right,1629220874685,target,256,male,174,l,German,5,images/main/conjunction/5/target/C_5_T_6.jpg,Tue Aug 17 2021 17:37:53 GMT+0100 (British Summer Time),1629218273498,43.353116666666665,62,main
2646,2620,26,What a delight!,conjunction,correct,right,1629220874685,no target,256,male,183,s,German,5,images/main/conjunction/5/no_target/C_5_NT_7.jpg,Tue Aug 17 2021 17:37:53 GMT+0100 (British Summer Time),1629218273498,43.353116666666665,63,main
2646,1427,26,What a delight!,conjunction,correct,right,1629220874685,target,256,male,158,l,German,1,images/main/conjunction/1/target/C_1_T_6.jpg,Tue Aug 17 2021 17:37:53 GMT+0100 (British Summer Time),1629218273498,43.353116666666665,64,main
2646,1054,26,What a delight!,shape,correct,right,1629220874685,target,256,male,44,l,German,5,images/main/feature/5/target/F_C_5_T_4_Sbrown.jpg,Tue Aug 17 2021 17:37:53 GMT+0100 (British Summer Time),1629218273498,43.353116666666665,1,main
2646,1430,26,What a delight!,shape,correct,right,1629220874685,no target,256,male,86,s,German,30,images/main/feature/30/no_target/F_C_30_NT_6.jpg,Tue Aug 17 2021 17:37:53 GMT+0100 (British Summer Time),1629218273498,43.353116666666665,2,main
2646,759,26,What a delight!,color,correct,right,1629220874685,target,256,male,74,l,German,30,images/main/feature/30/target/F_C_30_T_2_Tblue.jpg,Tue Aug 17 2021 17:37:53 GMT+0100 (British Summer Time),1629218273498,43.353116666666665,3,main
2646,754,26,What a delight!,color,correct,right,1629220874685,no target,256,male,52,s,German,5,images/main/feature/5/no_target/F_C_5_NT_4.jpg,Tue Aug 17 2021 17:37:53 GMT+0100 (British Summer Time),1629218273498,43.353116666666665,4,main
2646,1008,26,What a delight!,shape,correct,right,1629220874685,no target,256,male,38,s,German,1,images/main/feature/1/no_target/F_C_1_NT_6.jpg,Tue Aug 17 2021 17:37:53 GMT+0100 (British Summer Time),1629218273498,43.353116666666665,5,main
2646,358,26,What a delight!,color,correct,right,1629220874685,target,256,male,45,l,German,5,images/main/feature/5/target/F_C_5_T_5_Xblue.jpg,Tue Aug 17 2021 17:37:53 GMT+0100 (British Summer Time),1629218273498,43.353116666666665,6,main
2646,620,26,What a delight!,color,correct,right,1629220874685,target,256,male,57,l,German,15,images/main/feature/15/target/F_C_15_T_1_Tblue.jpg,Tue Aug 17 2021 17:37:53 GMT+0100 (British Summer Time),1629218273498,43.353116666666665,7,main
2646,668,26,What a delight!,color,correct,right,1629220874685,target,256,male,25,l,German,1,images/main/feature/1/target/F_C_1_T_1_Tblue.jpg,Tue Aug 17 2021 17:37:53 GMT+0100 (British Summer Time),1629218273498,43.353116666666665,8,main
2646,1223,26,What a delight!,color,correct,right,1629220874685,no target,256,male,82,s,German,30,images/main/feature/30/no_target/F_C_30_NT_2.jpg,Tue Aug 17 2021 17:37:53 GMT+0100 (British Summer Time),1629218273498,43.353116666666665,9,main
2646,2338,26,What a delight!,color,correct,right,1629220874685,no target,256,male,83,s,German,30,images/main/feature/30/no_target/F_C_30_NT_3.jpg,Tue Aug 17 2021 17:37:53 GMT+0100 (British Summer Time),1629218273498,43.353116666666665,10,main
2646,2872,26,What a delight!,color,correct,right,1629220874685,no target,256,male,84,s,German,30,images/main/feature/30/no_target/F_C_30_NT_4.jpg,Tue Aug 17 2021 17:37:53 GMT+0100 (British Summer Time),1629218273498,43.353116666666665,11,main
2646,1760,26,What a delight!,color,correct,right,1629220874685,no target,256,male,49,s,German,5,images/main/feature/5/no_target/F_C_5_NT_1.jpg,Tue Aug 17 2021 17:37:53 GMT+0100 (British Summer Time),1629218273498,43.353116666666665,12,main
2646,1030,26,What a delight!,shape,correct,right,1629220874685,no target,256,male,56,s,German,5,images/main/feature/5/no_target/F_C_5_NT_8.jpg,Tue Aug 17 2021 17:37:53 GMT+0100 (British Summer Time),1629218273498,43.353116666666665,13,main
2646,728,26,What a delight!,color,correct,right,1629220874685,target,256,male,62,l,German,15,images/main/feature/15/target/F_C_15_T_6_Xblue.jpg,Tue Aug 17 2021 17:37:53 GMT+0100 (British Summer Time),1629218273498,43.353116666666665,14,main
2646,1169,26,What a delight!,color,correct,right,1629220874685,no target,256,male,66,s,German,15,images/main/feature/15/no_target/F_C_15_NT_2.jpg,Tue Aug 17 2021 17:37:53 GMT+0100 (British Summer Time),1629218273498,43.353116666666665,15,main
2646,867,26,What a delight!,color,correct,right,1629220874685,target,256,male,77,l,German,30,images/main/feature/30/target/F_C_30_T_5_Xblue.jpg,Tue Aug 17 2021 17:37:53 GMT+0100 (British Summer Time),1629218273498,43.353116666666665,16,main
2646,1185,26,What a delight!,shape,correct,right,1629220874685,target,256,male,63,l,German,15,images/main/feature/15/target/F_C_15_T_7_Sgreen.jpg,Tue Aug 17 2021 17:37:53 GMT+0100 (British Summer Time),1629218273498,43.353116666666665,17,main
2646,1144,26,What a delight!,shape,correct,right,1629220874685,no target,256,male,87,s,German,30,images/main/feature/30/no_target/F_C_30_NT_7.jpg,Tue Aug 17 2021 17:37:53 GMT+0100 (British Summer Time),1629218273498,43.353116666666665,18,main
2646,1350,26,What a delight!,shape,correct,right,1629220874685,no target,256,male,85,s,German,30,images/main/feature/30/no_target/F_C_30_NT_5.jpg,Tue Aug 17 2021 17:37:53 GMT+0100 (British Summer Time),1629218273498,43.353116666666665,19,main
2646,825,26,What a delight!,color,correct,right,1629220874685,target,256,male,46,l,German,5,images/main/feature/5/target/F_C_5_T_6_Xblue.jpg,Tue Aug 17 2021 17:37:53 GMT+0100 (British Summer Time),1629218273498,43.353116666666665,20,main
2646,1198,26,What a delight!,shape,correct,right,1629220874685,no target,256,male,69,s,German,15,images/main/feature/15/no_target/F_C_15_NT_5.jpg,Tue Aug 17 2021 17:37:53 GMT+0100 (British Summer Time),1629218273498,43.353116666666665,21,main
2646,1159,26,What a delight!,shape,correct,right,1629220874685,target,256,male,32,l,German,1,images/main/feature/1/target/F_C_1_T_8_Sgreen.jpg,Tue Aug 17 2021 17:37:53 GMT+0100 (British Summer Time),1629218273498,43.353116666666665,22,main
2646,1071,26,What a delight!,shape,correct,right,1629220874685,target,256,male,47,l,German,5,images/main/feature/5/target/F_C_5_T_7_Sgreen.jpg,Tue Aug 17 2021 17:37:53 GMT+0100 (British Summer Time),1629218273498,43.353116666666665,23,main
2646,702,26,What a delight!,shape,correct,right,1629220874685,target,256,male,64,l,German,15,images/main/feature/15/target/F_C_15_T_8_Sgreen.jpg,Tue Aug 17 2021 17:37:53 GMT+0100 (British Summer Time),1629218273498,43.353116666666665,24,main
2646,1298,26,What a delight!,shape,correct,right,1629220874685,no target,256,male,70,s,German,15,images/main/feature/15/no_target/F_C_15_NT_6.jpg,Tue Aug 17 2021 17:37:53 GMT+0100 (British Summer Time),1629218273498,43.353116666666665,25,main
2646,826,26,What a delight!,shape,correct,right,1629220874685,target,256,male,75,l,German,30,images/main/feature/30/target/F_C_30_T_3_Sbrown.jpg,Tue Aug 17 2021 17:37:53 GMT+0100 (British Summer Time),1629218273498,43.353116666666665,26,main
2646,823,26,What a delight!,color,correct,right,1629220874685,no target,256,male,35,s,German,1,images/main/feature/1/no_target/F_C_1_NT_3.jpg,Tue Aug 17 2021 17:37:53 GMT+0100 (British Summer Time),1629218273498,43.353116666666665,27,main
2646,722,26,What a delight!,color,correct,right,1629220874685,target,256,male,61,l,German,15,images/main/feature/15/target/F_C_15_T_5_Xblue.jpg,Tue Aug 17 2021 17:37:53 GMT+0100 (British Summer Time),1629218273498,43.353116666666665,28,main
2646,1199,26,What a delight!,shape,correct,right,1629220874685,target,256,male,59,l,German,15,images/main/feature/15/target/F_C_15_T_3_Sbrown.jpg,Tue Aug 17 2021 17:37:53 GMT+0100 (British Summer Time),1629218273498,43.353116666666665,29,main
2646,1073,26,What a delight!,color,correct,right,1629220874685,target,256,male,73,l,German,30,images/main/feature/30/target/F_C_30_T_1_Tblue.jpg,Tue Aug 17 2021 17:37:53 GMT+0100 (British Summer Time),1629218273498,43.353116666666665,30,main
2646,755,26,What a delight!,color,correct,right,1629220874685,target,256,male,42,l,German,5,images/main/feature/5/target/F_C_5_T_2_Tblue.jpg,Tue Aug 17 2021 17:37:53 GMT+0100 (British Summer Time),1629218273498,43.353116666666665,31,main
2646,899,26,What a delight!,shape,correct,right,1629220874685,target,256,male,48,l,German,5,images/main/feature/5/target/F_C_5_T_8_Sgreen.jpg,Tue Aug 17 2021 17:37:53 GMT+0100 (British Summer Time),1629218273498,43.353116666666665,32,main
2646,869,26,What a delight!,color,correct,right,1629220874685,no target,256,male,51,s,German,5,images/main/feature/5/no_target/F_C_5_NT_3.jpg,Tue Aug 17 2021 17:37:53 GMT+0100 (British Summer Time),1629218273498,43.353116666666665,33,main
2646,1900,26,What a delight!,shape,correct,right,1629220874685,target,256,male,79,l,German,30,images/main/feature/30/target/F_C_30_T_7_Sgreen.jpg,Tue Aug 17 2021 17:37:53 GMT+0100 (British Summer Time),1629218273498,43.353116666666665,34,main
2646,908,26,What a delight!,shape,correct,right,1629220874685,target,256,male,80,l,German,30,images/main/feature/30/target/F_C_30_T_8_Sgreen.jpg,Tue Aug 17 2021 17:37:53 GMT+0100 (British Summer Time),1629218273498,43.353116666666665,35,main
2646,903,26,What a delight!,color,correct,right,1629220874685,target,256,male,29,l,German,1,images/main/feature/1/target/F_C_1_T_5_XBlue.jpg,Tue Aug 17 2021 17:37:53 GMT+0100 (British Summer Time),1629218273498,43.353116666666665,36,main
2646,958,26,What a delight!,shape,correct,right,1629220874685,no target,256,male,37,s,German,1,images/main/feature/1/no_target/F_C_1_NT_5.jpg,Tue Aug 17 2021 17:37:53 GMT+0100 (British Summer Time),1629218273498,43.353116666666665,37,main
2646,863,26,What a delight!,color,correct,right,1629220874685,no target,256,male,33,s,German,1,images/main/feature/1/no_target/F_C_1_NT_1.jpg,Tue Aug 17 2021 17:37:53 GMT+0100 (British Summer Time),1629218273498,43.353116666666665,38,main
2646,773,26,What a delight!,shape,correct,right,1629220874685,no target,256,male,39,s,German,1,images/main/feature/1/no_target/F_C_1_NT_7.jpg,Tue Aug 17 2021 17:37:53 GMT+0100 (British Summer Time),1629218273498,43.353116666666665,39,main
2646,1722,26,What a delight!,color,correct,right,1629220874685,target,256,male,26,l,German,1,images/main/feature/1/target/F_C_1_T_2_Tblue.jpg,Tue Aug 17 2021 17:37:53 GMT+0100 (British Summer Time),1629218273498,43.353116666666665,40,main
2646,847,26,What a delight!,shape,correct,right,1629220874685,target,256,male,60,l,German,15,images/main/feature/15/target/F_C_15_T_4_Sbrown.jpg,Tue Aug 17 2021 17:37:53 GMT+0100 (British Summer Time),1629218273498,43.353116666666665,41,main
2646,1047,26,What a delight!,shape,correct,right,1629220874685,target,256,male,76,l,German,30,images/main/feature/30/target/F_C_30_T_4_Sbrown.jpg,Tue Aug 17 2021 17:37:53 GMT+0100 (British Summer Time),1629218273498,43.353116666666665,42,main
2646,664,26,What a delight!,shape,correct,right,1629220874685,target,256,male,43,l,German,5,images/main/feature/5/target/F_C_5_T_3_Sbrown.jpg,Tue Aug 17 2021 17:37:53 GMT+0100 (British Summer Time),1629218273498,43.353116666666665,43,main
2646,1473,26,What a delight!,shape,incorrect,right,1629220874685,no target,256,male,40,l,German,1,images/main/feature/1/no_target/F_C_1_NT_8.jpg,Tue Aug 17 2021 17:37:53 GMT+0100 (British Summer Time),1629218273498,43.353116666666665,44,main
2646,802,26,What a delight!,color,correct,right,1629220874685,target,256,male,30,l,German,1,images/main/feature/1/target/F_C_1_T_6_XBlue.jpg,Tue Aug 17 2021 17:37:53 GMT+0100 (British Summer Time),1629218273498,43.353116666666665,45,main
2646,1158,26,What a delight!,shape,correct,right,1629220874685,no target,256,male,53,s,German,5,images/main/feature/5/no_target/F_C_5_NT_5.jpg,Tue Aug 17 2021 17:37:53 GMT+0100 (British Summer Time),1629218273498,43.353116666666665,46,main
2646,1812,26,What a delight!,shape,correct,right,1629220874685,no target,256,male,54,s,German,5,images/main/feature/5/no_target/F_C_5_NT_6.jpg,Tue Aug 17 2021 17:37:53 GMT+0100 (British Summer Time),1629218273498,43.353116666666665,47,main
2646,967,26,What a delight!,color,correct,right,1629220874685,target,256,male,78,l,German,30,images/main/feature/30/target/F_C_30_T_6_Xblue.jpg,Tue Aug 17 2021 17:37:53 GMT+0100 (British Summer Time),1629218273498,43.353116666666665,48,main
2646,758,26,What a delight!,shape,correct,right,1629220874685,target,256,male,31,l,German,1,images/main/feature/1/target/F_C_1_T_7_Sgreen.jpg,Tue Aug 17 2021 17:37:53 GMT+0100 (British Summer Time),1629218273498,43.353116666666665,49,main
2646,961,26,What a delight!,color,correct,right,1629220874685,no target,256,male,34,s,German,1,images/main/feature/1/no_target/F_C_1_NT_2.jpg,Tue Aug 17 2021 17:37:53 GMT+0100 (British Summer Time),1629218273498,43.353116666666665,50,main
2646,1000,26,What a delight!,shape,correct,right,1629220874685,no target,256,male,71,s,German,15,images/main/feature/15/no_target/F_C_15_NT_7.jpg,Tue Aug 17 2021 17:37:53 GMT+0100 (British Summer Time),1629218273498,43.353116666666665,51,main
2646,848,26,What a delight!,color,correct,right,1629220874685,target,256,male,41,l,German,5,images/main/feature/5/target/F_C_5_T_1_Tblue.jpg,Tue Aug 17 2021 17:37:53 GMT+0100 (British Summer Time),1629218273498,43.353116666666665,52,main
2646,1194,26,What a delight!,shape,correct,right,1629220874685,no target,256,male,55,s,German,5,images/main/feature/5/no_target/F_C_5_NT_7.jpg,Tue Aug 17 2021 17:37:53 GMT+0100 (British Summer Time),1629218273498,43.353116666666665,53,main
2646,1444,26,What a delight!,color,correct,right,1629220874685,no target,256,male,67,s,German,15,images/main/feature/15/no_target/F_C_15_NT_3.jpg,Tue Aug 17 2021 17:37:53 GMT+0100 (British Summer Time),1629218273498,43.353116666666665,54,main
2646,784,26,What a delight!,shape,correct,right,1629220874685,target,256,male,28,l,German,1,images/main/feature/1/target/F_C_1_T_4_Sbrown.jpg,Tue Aug 17 2021 17:37:53 GMT+0100 (British Summer Time),1629218273498,43.353116666666665,55,main
2646,903,26,What a delight!,shape,correct,right,1629220874685,no target,256,male,88,s,German,30,images/main/feature/30/no_target/F_C_30_NT_8.jpg,Tue Aug 17 2021 17:37:53 GMT+0100 (British Summer Time),1629218273498,43.353116666666665,56,main
2646,3377,26,What a delight!,color,correct,right,1629220874685,no target,256,male,65,s,German,15,images/main/feature/15/no_target/F_C_15_NT_1.jpg,Tue Aug 17 2021 17:37:53 GMT+0100 (British Summer Time),1629218273498,43.353116666666665,57,main
2646,3040,26,What a delight!,color,correct,right,1629220874685,no target,256,male,36,s,German,1,images/main/feature/1/no_target/F_C_1_NT_4.jpg,Tue Aug 17 2021 17:37:53 GMT+0100 (British Summer Time),1629218273498,43.353116666666665,58,main
2646,1206,26,What a delight!,color,correct,right,1629220874685,no target,256,male,68,s,German,15,images/main/feature/15/no_target/F_C_15_NT_4.jpg,Tue Aug 17 2021 17:37:53 GMT+0100 (British Summer Time),1629218273498,43.353116666666665,59,main
2646,1127,26,What a delight!,color,correct,right,1629220874685,no target,256,male,50,s,German,5,images/main/feature/5/no_target/F_C_5_NT_2.jpg,Tue Aug 17 2021 17:37:53 GMT+0100 (British Summer Time),1629218273498,43.353116666666665,60,main
2646,718,26,What a delight!,color,correct,right,1629220874685,target,256,male,58,l,German,15,images/main/feature/15/target/F_C_15_T_2_Tblue.jpg,Tue Aug 17 2021 17:37:53 GMT+0100 (British Summer Time),1629218273498,43.353116666666665,61,main
2646,894,26,What a delight!,shape,correct,right,1629220874685,target,256,male,27,l,German,1,images/main/feature/1/target/F_C_1_T_3_Sbrown.jpg,Tue Aug 17 2021 17:37:53 GMT+0100 (British Summer Time),1629218273498,43.353116666666665,62,main
2646,839,26,What a delight!,shape,correct,right,1629220874685,no target,256,male,72,s,German,15,images/main/feature/15/no_target/F_C_15_NT_8.jpg,Tue Aug 17 2021 17:37:53 GMT+0100 (British Summer Time),1629218273498,43.353116666666665,63,main
2646,863,26,What a delight!,color,correct,right,1629220874685,no target,256,male,81,s,German,30,images/main/feature/30/no_target/F_C_30_NT_1.jpg,Tue Aug 17 2021 17:37:53 GMT+0100 (British Summer Time),1629218273498,43.353116666666665,64,main
2646,932,26,What a delight!,conjunction,correct,right,1629220874685,target,256,male,190,l,German,15,images/main/conjunction/15/target/C_15_T_6.jpg,Tue Aug 17 2021 17:37:53 GMT+0100 (British Summer Time),1629218273498,43.353116666666665,1,main
2646,645,26,What a delight!,conjunction,incorrect,right,1629220874685,no target,256,male,215,l,German,30,images/main/conjunction/30/no_target/C_30_NT_7.jpg,Tue Aug 17 2021 17:37:53 GMT+0100 (British Summer Time),1629218273498,43.353116666666665,2,main
2646,725,26,What a delight!,conjunction,correct,right,1629220874685,target,256,male,157,l,German,1,images/main/conjunction/1/target/C_1_T_5.jpg,Tue Aug 17 2021 17:37:53 GMT+0100 (British Summer Time),1629218273498,43.353116666666665,3,main
2646,1072,26,What a delight!,conjunction,correct,right,1629220874685,no target,256,male,209,s,German,30,images/main/conjunction/30/no_target/C_30_NT_1.jpg,Tue Aug 17 2021 17:37:53 GMT+0100 (British Summer Time),1629218273498,43.353116666666665,4,main
2646,1253,26,What a delight!,conjunction,correct,right,1629220874685,target,256,male,155,l,German,1,images/main/conjunction/1/target/C_1_T_3.jpg,Tue Aug 17 2021 17:37:53 GMT+0100 (British Summer Time),1629218273498,43.353116666666665,5,main
2646,1407,26,What a delight!,conjunction,correct,right,1629220874685,target,256,male,204,l,German,30,images/main/conjunction/30/target/C_30_T_4.jpg,Tue Aug 17 2021 17:37:53 GMT+0100 (British Summer Time),1629218273498,43.353116666666665,6,main
2646,1206,26,What a delight!,conjunction,correct,right,1629220874685,no target,256,male,180,s,German,5,images/main/conjunction/5/no_target/C_5_NT_4.jpg,Tue Aug 17 2021 17:37:53 GMT+0100 (British Summer Time),1629218273498,43.353116666666665,7,main
2646,1134,26,What a delight!,conjunction,incorrect,right,1629220874685,no target,256,male,163,l,German,1,images/main/conjunction/1/no_target/C_1_NT_3.jpg,Tue Aug 17 2021 17:37:53 GMT+0100 (British Summer Time),1629218273498,43.353116666666665,8,main
2646,952,26,What a delight!,conjunction,correct,right,1629220874685,target,256,male,160,l,German,1,images/main/conjunction/1/target/C_1_T_8.jpg,Tue Aug 17 2021 17:37:53 GMT+0100 (British Summer Time),1629218273498,43.353116666666665,9,main
2646,1501,26,What a delight!,conjunction,correct,right,1629220874685,target,256,male,202,l,German,30,images/main/conjunction/30/target/C_30_T_2.jpg,Tue Aug 17 2021 17:37:53 GMT+0100 (British Summer Time),1629218273498,43.353116666666665,10,main
2646,1930,26,What a delight!,conjunction,correct,right,1629220874685,no target,256,male,194,s,German,15,images/main/conjunction/15/no_target/C_15_NT_2.jpg,Tue Aug 17 2021 17:37:53 GMT+0100 (British Summer Time),1629218273498,43.353116666666665,11,main
2646,886,26,What a delight!,conjunction,correct,right,1629220874685,target,256,male,159,l,German,1,images/main/conjunction/1/target/C_1_T_7.jpg,Tue Aug 17 2021 17:37:53 GMT+0100 (British Summer Time),1629218273498,43.353116666666665,12,main
2646,903,26,What a delight!,conjunction,correct,right,1629220874685,target,256,male,171,l,German,5,images/main/conjunction/5/target/C_5_T_3.jpg,Tue Aug 17 2021 17:37:53 GMT+0100 (British Summer Time),1629218273498,43.353116666666665,13,main
2646,1662,26,What a delight!,conjunction,correct,right,1629220874685,no target,256,male,166,s,German,1,images/main/conjunction/1/no_target/C_1_NT_6.jpg,Tue Aug 17 2021 17:37:53 GMT+0100 (British Summer Time),1629218273498,43.353116666666665,14,main
2646,2927,26,What a delight!,conjunction,correct,right,1629220874685,no target,256,male,216,s,German,30,images/main/conjunction/30/no_target/C_30_NT_8.jpg,Tue Aug 17 2021 17:37:53 GMT+0100 (British Summer Time),1629218273498,43.353116666666665,15,main
2646,799,26,What a delight!,conjunction,correct,right,1629220874685,target,256,male,191,l,German,15,images/main/conjunction/15/target/C_15_T_7.jpg,Tue Aug 17 2021 17:37:53 GMT+0100 (British Summer Time),1629218273498,43.353116666666665,16,main
2646,1349,26,What a delight!,conjunction,correct,right,1629220874685,target,256,male,186,l,German,15,images/main/conjunction/15/target/C_15_T_2.jpg,Tue Aug 17 2021 17:37:53 GMT+0100 (British Summer Time),1629218273498,43.353116666666665,17,main
2646,2485,26,What a delight!,conjunction,correct,right,1629220874685,no target,256,male,214,s,German,30,images/main/conjunction/30/no_target/C_30_NT_6.jpg,Tue Aug 17 2021 17:37:53 GMT+0100 (British Summer Time),1629218273498,43.353116666666665,18,main
2646,1518,26,What a delight!,conjunction,correct,right,1629220874685,no target,256,male,167,s,German,1,images/main/conjunction/1/no_target/C_1_NT_7.jpg,Tue Aug 17 2021 17:37:53 GMT+0100 (British Summer Time),1629218273498,43.353116666666665,19,main
2646,1533,26,What a delight!,conjunction,correct,right,1629220874685,target,256,male,153,l,German,1,images/main/conjunction/1/target/C_1_T_1.jpg,Tue Aug 17 2021 17:37:53 GMT+0100 (British Summer Time),1629218273498,43.353116666666665,20,main
2646,854,26,What a delight!,conjunction,correct,right,1629220874685,no target,256,male,162,s,German,1,images/main/conjunction/1/no_target/C_1_NT_2.jpg,Tue Aug 17 2021 17:37:53 GMT+0100 (British Summer Time),1629218273498,43.353116666666665,21,main
2646,2299,26,What a delight!,conjunction,correct,right,1629220874685,no target,256,male,198,s,German,15,images/main/conjunction/15/no_target/C_15_NT_6.jpg,Tue Aug 17 2021 17:37:53 GMT+0100 (British Summer Time),1629218273498,43.353116666666665,22,main
2646,2235,26,What a delight!,conjunction,correct,right,1629220874685,target,256,male,170,l,German,5,images/main/conjunction/5/target/C_5_T_2.jpg,Tue Aug 17 2021 17:37:53 GMT+0100 (British Summer Time),1629218273498,43.353116666666665,23,main
2646,2203,26,What a delight!,conjunction,correct,right,1629220874685,no target,256,male,197,s,German,15,images/main/conjunction/15/no_target/C_15_NT_5.jpg,Tue Aug 17 2021 17:37:53 GMT+0100 (British Summer Time),1629218273498,43.353116666666665,24,main
2646,2203,26,What a delight!,conjunction,correct,right,1629220874685,target,256,male,156,l,German,1,images/main/conjunction/1/target/C_1_T_4.jpg,Tue Aug 17 2021 17:37:53 GMT+0100 (British Summer Time),1629218273498,43.353116666666665,25,main
2646,2203,26,What a delight!,conjunction,incorrect,right,1629220874685,target,256,male,205,s,German,30,images/main/conjunction/30/target/C_30_T_5.jpg,Tue Aug 17 2021 17:37:53 GMT+0100 (British Summer Time),1629218273498,43.353116666666665,26,main
2646,740,26,What a delight!,conjunction,correct,right,1629220874685,target,256,male,154,l,German,1,images/main/conjunction/1/target/C_1_T_2.jpg,Tue Aug 17 2021 17:37:53 GMT+0100 (British Summer Time),1629218273498,43.353116666666665,27,main
2646,1225,26,What a delight!,conjunction,correct,right,1629220874685,target,256,male,208,l,German,30,images/main/conjunction/30/target/C_30_T_8.jpg,Tue Aug 17 2021 17:37:53 GMT+0100 (British Summer Time),1629218273498,43.353116666666665,28,main
2646,1550,26,What a delight!,conjunction,correct,right,1629220874685,no target,256,male,200,s,German,15,images/main/conjunction/15/no_target/C_15_NT_8.jpg,Tue Aug 17 2021 17:37:53 GMT+0100 (British Summer Time),1629218273498,43.353116666666665,29,main
2646,1520,26,What a delight!,conjunction,correct,right,1629220874685,no target,256,male,195,s,German,15,images/main/conjunction/15/no_target/C_15_NT_3.jpg,Tue Aug 17 2021 17:37:53 GMT+0100 (British Summer Time),1629218273498,43.353116666666665,30,main
2646,958,26,What a delight!,conjunction,correct,right,1629220874685,target,256,male,192,l,German,15,images/main/conjunction/15/target/C_15_T_8.jpg,Tue Aug 17 2021 17:37:53 GMT+0100 (British Summer Time),1629218273498,43.353116666666665,31,main
2646,1303,26,What a delight!,conjunction,correct,right,1629220874685,target,256,male,188,l,German,15,images/main/conjunction/15/target/C_15_T_4.jpg,Tue Aug 17 2021 17:37:53 GMT+0100 (British Summer Time),1629218273498,43.353116666666665,32,main
2646,1232,26,What a delight!,conjunction,correct,right,1629220874685,no target,256,male,177,s,German,5,images/main/conjunction/5/no_target/C_5_NT_1.jpg,Tue Aug 17 2021 17:37:53 GMT+0100 (British Summer Time),1629218273498,43.353116666666665,33,main
2646,1923,26,What a delight!,conjunction,correct,right,1629220874685,no target,256,male,183,s,German,5,images/main/conjunction/5/no_target/C_5_NT_7.jpg,Tue Aug 17 2021 17:37:53 GMT+0100 (British Summer Time),1629218273498,43.353116666666665,34,main
2646,1046,26,What a delight!,conjunction,correct,right,1629220874685,target,256,male,189,l,German,15,images/main/conjunction/15/target/C_15_T_5.jpg,Tue Aug 17 2021 17:37:53 GMT+0100 (British Summer Time),1629218273498,43.353116666666665,35,main
2646,1448,26,What a delight!,conjunction,correct,right,1629220874685,no target,256,male,179,s,German,5,images/main/conjunction/5/no_target/C_5_NT_3.jpg,Tue Aug 17 2021 17:37:53 GMT+0100 (British Summer Time),1629218273498,43.353116666666665,36,main
2646,2086,26,What a delight!,conjunction,correct,right,1629220874685,no target,256,male,210,s,German,30,images/main/conjunction/30/no_target/C_30_NT_2.jpg,Tue Aug 17 2021 17:37:53 GMT+0100 (British Summer Time),1629218273498,43.353116666666665,37,main
2646,904,26,What a delight!,conjunction,correct,right,1629220874685,no target,256,male,196,s,German,15,images/main/conjunction/15/no_target/C_15_NT_4.jpg,Tue Aug 17 2021 17:37:53 GMT+0100 (British Summer Time),1629218273498,43.353116666666665,38,main
2646,766,26,What a delight!,conjunction,correct,right,1629220874685,no target,256,male,165,s,German,1,images/main/conjunction/1/no_target/C_1_NT_5.jpg,Tue Aug 17 2021 17:37:53 GMT+0100 (British Summer Time),1629218273498,43.353116666666665,39,main
2646,2147,26,What a delight!,conjunction,correct,right,1629220874685,no target,256,male,199,s,German,15,images/main/conjunction/15/no_target/C_15_NT_7.jpg,Tue Aug 17 2021 17:37:53 GMT+0100 (British Summer Time),1629218273498,43.353116666666665,40,main
2646,971,26,What a delight!,conjunction,correct,right,1629220874685,target,256,male,173,l,German,5,images/main/conjunction/5/target/C_5_T_5.jpg,Tue Aug 17 2021 17:37:53 GMT+0100 (British Summer Time),1629218273498,43.353116666666665,41,main
2646,901,26,What a delight!,conjunction,correct,right,1629220874685,no target,256,male,184,s,German,5,images/main/conjunction/5/no_target/C_5_NT_8.jpg,Tue Aug 17 2021 17:37:53 GMT+0100 (British Summer Time),1629218273498,43.353116666666665,42,main
2646,4243,26,What a delight!,conjunction,correct,right,1629220874685,no target,256,male,193,s,German,15,images/main/conjunction/15/no_target/C_15_NT_1.jpg,Tue Aug 17 2021 17:37:53 GMT+0100 (British Summer Time),1629218273498,43.353116666666665,43,main
2646,682,26,What a delight!,conjunction,correct,right,1629220874685,no target,256,male,182,s,German,5,images/main/conjunction/5/no_target/C_5_NT_6.jpg,Tue Aug 17 2021 17:37:53 GMT+0100 (British Summer Time),1629218273498,43.353116666666665,44,main
2646,1079,26,What a delight!,conjunction,correct,right,1629220874685,target,256,male,201,l,German,30,images/main/conjunction/30/target/C_30_T_1.jpg,Tue Aug 17 2021 17:37:53 GMT+0100 (British Summer Time),1629218273498,43.353116666666665,45,main
2646,883,26,What a delight!,conjunction,correct,right,1629220874685,target,256,male,174,l,German,5,images/main/conjunction/5/target/C_5_T_6.jpg,Tue Aug 17 2021 17:37:53 GMT+0100 (British Summer Time),1629218273498,43.353116666666665,46,main
2646,746,26,What a delight!,conjunction,correct,right,1629220874685,target,256,male,185,l,German,15,images/main/conjunction/15/target/C_15_T_1.jpg,Tue Aug 17 2021 17:37:53 GMT+0100 (British Summer Time),1629218273498,43.353116666666665,47,main
2646,1885,26,What a delight!,conjunction,correct,right,1629220874685,no target,256,male,212,s,German,30,images/main/conjunction/30/no_target/C_30_NT_4.jpg,Tue Aug 17 2021 17:37:53 GMT+0100 (British Summer Time),1629218273498,43.353116666666665,48,main
2646,2906,26,What a delight!,conjunction,correct,right,1629220874685,no target,256,male,164,s,German,1,images/main/conjunction/1/no_target/C_1_NT_4.jpg,Tue Aug 17 2021 17:37:53 GMT+0100 (British Summer Time),1629218273498,43.353116666666665,49,main
2646,4135,26,What a delight!,conjunction,correct,right,1629220874685,no target,256,male,161,s,German,1,images/main/conjunction/1/no_target/C_1_NT_1.jpg,Tue Aug 17 2021 17:37:53 GMT+0100 (British Summer Time),1629218273498,43.353116666666665,50,main
2646,871,26,What a delight!,conjunction,correct,right,1629220874685,target,256,male,187,l,German,15,images/main/conjunction/15/target/C_15_T_3.jpg,Tue Aug 17 2021 17:37:53 GMT+0100 (British Summer Time),1629218273498,43.353116666666665,51,main
2646,754,26,What a delight!,conjunction,correct,right,1629220874685,target,256,male,158,l,German,1,images/main/conjunction/1/target/C_1_T_6.jpg,Tue Aug 17 2021 17:37:53 GMT+0100 (British Summer Time),1629218273498,43.353116666666665,52,main
2646,2202,26,What a delight!,conjunction,correct,right,1629220874685,target,256,male,175,l,German,5,images/main/conjunction/5/target/C_5_T_7.jpg,Tue Aug 17 2021 17:37:53 GMT+0100 (British Summer Time),1629218273498,43.353116666666665,53,main
2646,968,26,What a delight!,conjunction,correct,right,1629220874685,no target,256,male,168,s,German,1,images/main/conjunction/1/no_target/C_1_NT_8.jpg,Tue Aug 17 2021 17:37:53 GMT+0100 (British Summer Time),1629218273498,43.353116666666665,54,main
2646,855,26,What a delight!,conjunction,correct,right,1629220874685,target,256,male,203,l,German,30,images/main/conjunction/30/target/C_30_T_3.jpg,Tue Aug 17 2021 17:37:53 GMT+0100 (British Summer Time),1629218273498,43.353116666666665,55,main
2646,1857,26,What a delight!,conjunction,correct,right,1629220874685,no target,256,male,213,s,German,30,images/main/conjunction/30/no_target/C_30_NT_5.jpg,Tue Aug 17 2021 17:37:53 GMT+0100 (British Summer Time),1629218273498,43.353116666666665,56,main
2646,2694,26,What a delight!,conjunction,correct,right,1629220874685,no target,256,male,211,s,German,30,images/main/conjunction/30/no_target/C_30_NT_3.jpg,Tue Aug 17 2021 17:37:53 GMT+0100 (British Summer Time),1629218273498,43.353116666666665,57,main
2646,1248,26,What a delight!,conjunction,correct,right,1629220874685,target,256,male,207,l,German,30,images/main/conjunction/30/target/C_30_T_7.jpg,Tue Aug 17 2021 17:37:53 GMT+0100 (British Summer Time),1629218273498,43.353116666666665,58,main
2646,1343,26,What a delight!,conjunction,correct,right,1629220874685,no target,256,male,178,s,German,5,images/main/conjunction/5/no_target/C_5_NT_2.jpg,Tue Aug 17 2021 17:37:53 GMT+0100 (British Summer Time),1629218273498,43.353116666666665,59,main
2646,1544,26,What a delight!,conjunction,correct,right,1629220874685,target,256,male,172,l,German,5,images/main/conjunction/5/target/C_5_T_4.jpg,Tue Aug 17 2021 17:37:53 GMT+0100 (British Summer Time),1629218273498,43.353116666666665,60,main
2646,1363,26,What a delight!,conjunction,correct,right,1629220874685,target,256,male,176,l,German,5,images/main/conjunction/5/target/C_5_T_8.jpg,Tue Aug 17 2021 17:37:53 GMT+0100 (British Summer Time),1629218273498,43.353116666666665,61,main
2646,1240,26,What a delight!,conjunction,correct,right,1629220874685,no target,256,male,181,s,German,5,images/main/conjunction/5/no_target/C_5_NT_5.jpg,Tue Aug 17 2021 17:37:53 GMT+0100 (British Summer Time),1629218273498,43.353116666666665,62,main
2646,857,26,What a delight!,conjunction,correct,right,1629220874685,target,256,male,169,l,German,5,images/main/conjunction/5/target/C_5_T_1.jpg,Tue Aug 17 2021 17:37:53 GMT+0100 (British Summer Time),1629218273498,43.353116666666665,63,main
2646,990,26,What a delight!,conjunction,correct,right,1629220874685,target,256,male,206,l,German,30,images/main/conjunction/30/target/C_30_T_6.jpg,Tue Aug 17 2021 17:37:53 GMT+0100 (British Summer Time),1629218273498,43.353116666666665,64,main
2646,809,26,What a delight!,conjunction,correct,right,1629220874685,target,256,male,157,l,German,1,images/main/conjunction/1/target/C_1_T_5.jpg,Tue Aug 17 2021 17:37:53 GMT+0100 (British Summer Time),1629218273498,43.353116666666665,1,main
2646,1042,26,What a delight!,conjunction,correct,right,1629220874685,no target,256,male,183,s,German,5,images/main/conjunction/5/no_target/C_5_NT_7.jpg,Tue Aug 17 2021 17:37:53 GMT+0100 (British Summer Time),1629218273498,43.353116666666665,2,main
2646,754,26,What a delight!,conjunction,correct,right,1629220874685,target,256,male,160,l,German,1,images/main/conjunction/1/target/C_1_T_8.jpg,Tue Aug 17 2021 17:37:53 GMT+0100 (British Summer Time),1629218273498,43.353116666666665,3,main
2646,2118,26,What a delight!,conjunction,correct,right,1629220874685,no target,256,male,195,s,German,15,images/main/conjunction/15/no_target/C_15_NT_3.jpg,Tue Aug 17 2021 17:37:53 GMT+0100 (British Summer Time),1629218273498,43.353116666666665,4,main
2646,945,26,What a delight!,conjunction,correct,right,1629220874685,no target,256,male,181,s,German,5,images/main/conjunction/5/no_target/C_5_NT_5.jpg,Tue Aug 17 2021 17:37:53 GMT+0100 (British Summer Time),1629218273498,43.353116666666665,5,main
2646,1298,26,What a delight!,conjunction,correct,right,1629220874685,target,256,male,201,l,German,30,images/main/conjunction/30/target/C_30_T_1.jpg,Tue Aug 17 2021 17:37:53 GMT+0100 (British Summer Time),1629218273498,43.353116666666665,6,main
2646,986,26,What a delight!,conjunction,correct,right,1629220874685,target,256,male,174,l,German,5,images/main/conjunction/5/target/C_5_T_6.jpg,Tue Aug 17 2021 17:37:53 GMT+0100 (British Summer Time),1629218273498,43.353116666666665,7,main
2646,2610,26,What a delight!,conjunction,correct,right,1629220874685,no target,256,male,199,s,German,15,images/main/conjunction/15/no_target/C_15_NT_7.jpg,Tue Aug 17 2021 17:37:53 GMT+0100 (British Summer Time),1629218273498,43.353116666666665,8,main
2646,874,26,What a delight!,conjunction,correct,right,1629220874685,target,256,male,154,l,German,1,images/main/conjunction/1/target/C_1_T_2.jpg,Tue Aug 17 2021 17:37:53 GMT+0100 (British Summer Time),1629218273498,43.353116666666665,9,main
2646,1615,26,What a delight!,conjunction,correct,right,1629220874685,target,256,male,175,l,German,5,images/main/conjunction/5/target/C_5_T_7.jpg,Tue Aug 17 2021 17:37:53 GMT+0100 (British Summer Time),1629218273498,43.353116666666665,10,main
2646,2353,26,What a delight!,conjunction,correct,right,1629220874685,no target,256,male,215,s,German,30,images/main/conjunction/30/no_target/C_30_NT_7.jpg,Tue Aug 17 2021 17:37:53 GMT+0100 (British Summer Time),1629218273498,43.353116666666665,11,main
2646,728,26,What a delight!,conjunction,correct,right,1629220874685,target,256,male,172,l,German,5,images/main/conjunction/5/target/C_5_T_4.jpg,Tue Aug 17 2021 17:37:53 GMT+0100 (British Summer Time),1629218273498,43.353116666666665,12,main
2646,1048,26,What a delight!,conjunction,correct,right,1629220874685,target,256,male,171,l,German,5,images/main/conjunction/5/target/C_5_T_3.jpg,Tue Aug 17 2021 17:37:53 GMT+0100 (British Summer Time),1629218273498,43.353116666666665,13,main
2646,1727,26,What a delight!,conjunction,correct,right,1629220874685,no target,256,male,212,s,German,30,images/main/conjunction/30/no_target/C_30_NT_4.jpg,Tue Aug 17 2021 17:37:53 GMT+0100 (British Summer Time),1629218273498,43.353116666666665,14,main
2646,1127,26,What a delight!,conjunction,correct,right,1629220874685,target,256,male,204,l,German,30,images/main/conjunction/30/target/C_30_T_4.jpg,Tue Aug 17 2021 17:37:53 GMT+0100 (British Summer Time),1629218273498,43.353116666666665,15,main
2646,889,26,What a delight!,conjunction,correct,right,1629220874685,no target,256,male,182,s,German,5,images/main/conjunction/5/no_target/C_5_NT_6.jpg,Tue Aug 17 2021 17:37:53 GMT+0100 (British Summer Time),1629218273498,43.353116666666665,16,main
2646,1720,26,What a delight!,conjunction,correct,right,1629220874685,target,256,male,206,l,German,30,images/main/conjunction/30/target/C_30_T_6.jpg,Tue Aug 17 2021 17:37:53 GMT+0100 (British Summer Time),1629218273498,43.353116666666665,17,main
2646,985,26,What a delight!,conjunction,correct,right,1629220874685,no target,256,male,194,s,German,15,images/main/conjunction/15/no_target/C_15_NT_2.jpg,Tue Aug 17 2021 17:37:53 GMT+0100 (British Summer Time),1629218273498,43.353116666666665,18,main
2646,944,26,What a delight!,conjunction,correct,right,1629220874685,no target,256,male,168,s,German,1,images/main/conjunction/1/no_target/C_1_NT_8.jpg,Tue Aug 17 2021 17:37:53 GMT+0100 (British Summer Time),1629218273498,43.353116666666665,19,main
2646,2266,26,What a delight!,conjunction,correct,right,1629220874685,no target,256,male,216,s,German,30,images/main/conjunction/30/no_target/C_30_NT_8.jpg,Tue Aug 17 2021 17:37:53 GMT+0100 (British Summer Time),1629218273498,43.353116666666665,20,main
2646,926,26,What a delight!,conjunction,correct,right,1629220874685,no target,256,male,165,s,German,1,images/main/conjunction/1/no_target/C_1_NT_5.jpg,Tue Aug 17 2021 17:37:53 GMT+0100 (British Summer Time),1629218273498,43.353116666666665,21,main
2646,918,26,What a delight!,conjunction,correct,right,1629220874685,target,256,male,169,l,German,5,images/main/conjunction/5/target/C_5_T_1.jpg,Tue Aug 17 2021 17:37:53 GMT+0100 (British Summer Time),1629218273498,43.353116666666665,22,main
2646,2934,26,What a delight!,conjunction,correct,right,1629220874685,no target,256,male,214,s,German,30,images/main/conjunction/30/no_target/C_30_NT_6.jpg,Tue Aug 17 2021 17:37:53 GMT+0100 (British Summer Time),1629218273498,43.353116666666665,23,main
2646,2654,26,What a delight!,conjunction,correct,right,1629220874685,no target,256,male,209,s,German,30,images/main/conjunction/30/no_target/C_30_NT_1.jpg,Tue Aug 17 2021 17:37:53 GMT+0100 (British Summer Time),1629218273498,43.353116666666665,24,main
2646,1962,26,What a delight!,conjunction,correct,right,1629220874685,no target,256,male,163,s,German,1,images/main/conjunction/1/no_target/C_1_NT_3.jpg,Tue Aug 17 2021 17:37:53 GMT+0100 (British Summer Time),1629218273498,43.353116666666665,25,main
2646,3302,26,What a delight!,conjunction,correct,right,1629220874685,target,256,male,202,l,German,30,images/main/conjunction/30/target/C_30_T_2.jpg,Tue Aug 17 2021 17:37:53 GMT+0100 (British Summer Time),1629218273498,43.353116666666665,26,main
2646,2160,26,What a delight!,conjunction,correct,right,1629220874685,no target,256,male,179,s,German,5,images/main/conjunction/5/no_target/C_5_NT_3.jpg,Tue Aug 17 2021 17:37:53 GMT+0100 (British Summer Time),1629218273498,43.353116666666665,27,main
2646,3685,26,What a delight!,conjunction,correct,right,1629220874685,no target,256,male,167,s,German,1,images/main/conjunction/1/no_target/C_1_NT_7.jpg,Tue Aug 17 2021 17:37:53 GMT+0100 (British Summer Time),1629218273498,43.353116666666665,28,main
2646,1270,26,What a delight!,conjunction,correct,right,1629220874685,target,256,male,188,l,German,15,images/main/conjunction/15/target/C_15_T_4.jpg,Tue Aug 17 2021 17:37:53 GMT+0100 (British Summer Time),1629218273498,43.353116666666665,29,main
2646,758,26,What a delight!,conjunction,correct,right,1629220874685,target,256,male,185,l,German,15,images/main/conjunction/15/target/C_15_T_1.jpg,Tue Aug 17 2021 17:37:53 GMT+0100 (British Summer Time),1629218273498,43.353116666666665,30,main
2646,778,26,What a delight!,conjunction,correct,right,1629220874685,target,256,male,159,l,German,1,images/main/conjunction/1/target/C_1_T_7.jpg,Tue Aug 17 2021 17:37:53 GMT+0100 (British Summer Time),1629218273498,43.353116666666665,31,main
2646,673,26,What a delight!,conjunction,correct,right,1629220874685,target,256,male,155,l,German,1,images/main/conjunction/1/target/C_1_T_3.jpg,Tue Aug 17 2021 17:37:53 GMT+0100 (British Summer Time),1629218273498,43.353116666666665,32,main
2646,1146,26,What a delight!,conjunction,correct,right,1629220874685,no target,256,male,178,s,German,5,images/main/conjunction/5/no_target/C_5_NT_2.jpg,Tue Aug 17 2021 17:37:53 GMT+0100 (British Summer Time),1629218273498,43.353116666666665,33,main
2646,1997,26,What a delight!,conjunction,correct,right,1629220874685,no target,256,male,164,s,German,1,images/main/conjunction/1/no_target/C_1_NT_4.jpg,Tue Aug 17 2021 17:37:53 GMT+0100 (British Summer Time),1629218273498,43.353116666666665,34,main
2646,1888,26,What a delight!,conjunction,correct,right,1629220874685,no target,256,male,197,s,German,15,images/main/conjunction/15/no_target/C_15_NT_5.jpg,Tue Aug 17 2021 17:37:53 GMT+0100 (British Summer Time),1629218273498,43.353116666666665,35,main
2646,2086,26,What a delight!,conjunction,correct,right,1629220874685,target,256,male,173,l,German,5,images/main/conjunction/5/target/C_5_T_5.jpg,Tue Aug 17 2021 17:37:53 GMT+0100 (British Summer Time),1629218273498,43.353116666666665,36,main
2646,1246,26,What a delight!,conjunction,correct,right,1629220874685,no target,256,male,177,s,German,5,images/main/conjunction/5/no_target/C_5_NT_1.jpg,Tue Aug 17 2021 17:37:53 GMT+0100 (British Summer Time),1629218273498,43.353116666666665,37,main
2646,858,26,What a delight!,conjunction,correct,right,1629220874685,target,256,male,207,l,German,30,images/main/conjunction/30/target/C_30_T_7.jpg,Tue Aug 17 2021 17:37:53 GMT+0100 (British Summer Time),1629218273498,43.353116666666665,38,main
2646,1583,26,What a delight!,conjunction,correct,right,1629220874685,target,256,male,203,l,German,30,images/main/conjunction/30/target/C_30_T_3.jpg,Tue Aug 17 2021 17:37:53 GMT+0100 (British Summer Time),1629218273498,43.353116666666665,39,main
2646,866,26,What a delight!,conjunction,incorrect,right,1629220874685,target,256,male,158,s,German,1,images/main/conjunction/1/target/C_1_T_6.jpg,Tue Aug 17 2021 17:37:53 GMT+0100 (British Summer Time),1629218273498,43.353116666666665,40,main
2646,1719,26,What a delight!,conjunction,correct,right,1629220874685,no target,256,male,213,s,German,30,images/main/conjunction/30/no_target/C_30_NT_5.jpg,Tue Aug 17 2021 17:37:53 GMT+0100 (British Summer Time),1629218273498,43.353116666666665,41,main
2646,1367,26,What a delight!,conjunction,correct,right,1629220874685,no target,256,male,200,s,German,15,images/main/conjunction/15/no_target/C_15_NT_8.jpg,Tue Aug 17 2021 17:37:53 GMT+0100 (British Summer Time),1629218273498,43.353116666666665,42,main
2646,851,26,What a delight!,conjunction,correct,right,1629220874685,target,256,male,153,l,German,1,images/main/conjunction/1/target/C_1_T_1.jpg,Tue Aug 17 2021 17:37:53 GMT+0100 (British Summer Time),1629218273498,43.353116666666665,43,main
2646,1905,26,What a delight!,conjunction,correct,right,1629220874685,no target,256,male,210,s,German,30,images/main/conjunction/30/no_target/C_30_NT_2.jpg,Tue Aug 17 2021 17:37:53 GMT+0100 (British Summer Time),1629218273498,43.353116666666665,44,main
2646,1075,26,What a delight!,conjunction,correct,right,1629220874685,target,256,male,176,l,German,5,images/main/conjunction/5/target/C_5_T_8.jpg,Tue Aug 17 2021 17:37:53 GMT+0100 (British Summer Time),1629218273498,43.353116666666665,45,main
2646,952,26,What a delight!,conjunction,correct,right,1629220874685,no target,256,male,162,s,German,1,images/main/conjunction/1/no_target/C_1_NT_2.jpg,Tue Aug 17 2021 17:37:53 GMT+0100 (British Summer Time),1629218273498,43.353116666666665,46,main
2646,1039,26,What a delight!,conjunction,correct,right,1629220874685,no target,256,male,180,s,German,5,images/main/conjunction/5/no_target/C_5_NT_4.jpg,Tue Aug 17 2021 17:37:53 GMT+0100 (British Summer Time),1629218273498,43.353116666666665,47,main
2646,1142,26,What a delight!,conjunction,correct,right,1629220874685,target,256,male,191,l,German,15,images/main/conjunction/15/target/C_15_T_7.jpg,Tue Aug 17 2021 17:37:53 GMT+0100 (British Summer Time),1629218273498,43.353116666666665,48,main
2646,1087,26,What a delight!,conjunction,correct,right,1629220874685,no target,256,male,161,s,German,1,images/main/conjunction/1/no_target/C_1_NT_1.jpg,Tue Aug 17 2021 17:37:53 GMT+0100 (British Summer Time),1629218273498,43.353116666666665,49,main
2646,751,26,What a delight!,conjunction,correct,right,1629220874685,target,256,male,170,l,German,5,images/main/conjunction/5/target/C_5_T_2.jpg,Tue Aug 17 2021 17:37:53 GMT+0100 (British Summer Time),1629218273498,43.353116666666665,50,main
2646,918,26,What a delight!,conjunction,correct,right,1629220874685,target,256,male,189,l,German,15,images/main/conjunction/15/target/C_15_T_5.jpg,Tue Aug 17 2021 17:37:53 GMT+0100 (British Summer Time),1629218273498,43.353116666666665,51,main
2646,2957,26,What a delight!,conjunction,correct,right,1629220874685,no target,256,male,211,s,German,30,images/main/conjunction/30/no_target/C_30_NT_3.jpg,Tue Aug 17 2021 17:37:53 GMT+0100 (British Summer Time),1629218273498,43.353116666666665,52,main
2646,786,26,What a delight!,conjunction,correct,right,1629220874685,target,256,male,156,l,German,1,images/main/conjunction/1/target/C_1_T_4.jpg,Tue Aug 17 2021 17:37:53 GMT+0100 (British Summer Time),1629218273498,43.353116666666665,53,main
2646,1170,26,What a delight!,conjunction,correct,right,1629220874685,no target,256,male,193,s,German,15,images/main/conjunction/15/no_target/C_15_NT_1.jpg,Tue Aug 17 2021 17:37:53 GMT+0100 (British Summer Time),1629218273498,43.353116666666665,54,main
2646,898,26,What a delight!,conjunction,correct,right,1629220874685,target,256,male,187,l,German,15,images/main/conjunction/15/target/C_15_T_3.jpg,Tue Aug 17 2021 17:37:53 GMT+0100 (British Summer Time),1629218273498,43.353116666666665,55,main
2646,959,26,What a delight!,conjunction,correct,right,1629220874685,no target,256,male,166,s,German,1,images/main/conjunction/1/no_target/C_1_NT_6.jpg,Tue Aug 17 2021 17:37:53 GMT+0100 (British Summer Time),1629218273498,43.353116666666665,56,main
2646,969,26,What a delight!,conjunction,correct,right,1629220874685,target,256,male,186,l,German,15,images/main/conjunction/15/target/C_15_T_2.jpg,Tue Aug 17 2021 17:37:53 GMT+0100 (British Summer Time),1629218273498,43.353116666666665,57,main
2646,1529,26,What a delight!,conjunction,correct,right,1629220874685,no target,256,male,184,s,German,5,images/main/conjunction/5/no_target/C_5_NT_8.jpg,Tue Aug 17 2021 17:37:53 GMT+0100 (British Summer Time),1629218273498,43.353116666666665,58,main
2646,951,26,What a delight!,conjunction,correct,right,1629220874685,target,256,male,190,l,German,15,images/main/conjunction/15/target/C_15_T_6.jpg,Tue Aug 17 2021 17:37:53 GMT+0100 (British Summer Time),1629218273498,43.353116666666665,59,main
2646,1078,26,What a delight!,conjunction,correct,right,1629220874685,target,256,male,192,l,German,15,images/main/conjunction/15/target/C_15_T_8.jpg,Tue Aug 17 2021 17:37:53 GMT+0100 (British Summer Time),1629218273498,43.353116666666665,60,main
2646,1703,26,What a delight!,conjunction,correct,right,1629220874685,no target,256,male,196,s,German,15,images/main/conjunction/15/no_target/C_15_NT_4.jpg,Tue Aug 17 2021 17:37:53 GMT+0100 (British Summer Time),1629218273498,43.353116666666665,61,main
2646,992,26,What a delight!,conjunction,correct,right,1629220874685,target,256,male,208,l,German,30,images/main/conjunction/30/target/C_30_T_8.jpg,Tue Aug 17 2021 17:37:53 GMT+0100 (British Summer Time),1629218273498,43.353116666666665,62,main
2646,1271,26,What a delight!,conjunction,correct,right,1629220874685,target,256,male,205,l,German,30,images/main/conjunction/30/target/C_30_T_5.jpg,Tue Aug 17 2021 17:37:53 GMT+0100 (British Summer Time),1629218273498,43.353116666666665,63,main
2646,944,26,What a delight!,conjunction,correct,right,1629220874685,no target,256,male,198,s,German,15,images/main/conjunction/15/no_target/C_15_NT_6.jpg,Tue Aug 17 2021 17:37:53 GMT+0100 (British Summer Time),1629218273498,43.353116666666665,64,main
2640,5100,27,,shape,correct,right,1629208316021,target,256,male,3,l,German,5,images/practice/feature/F_5_T_3_Sbrown_TRAIN.jpg,Tue Aug 17 2021 15:20:20 GMT+0200 (Mitteleuropische Sommerzeit),1629206420737,31.588066666666666,1,practice
2640,2579,27,,color,correct,right,1629208316021,no target,256,male,2,s,German,1,images/practice/feature/F_1_NT_TRAIN.jpg,Tue Aug 17 2021 15:20:20 GMT+0200 (Mitteleuropische Sommerzeit),1629206420737,31.588066666666666,2,practice
2640,2388,27,,color,correct,right,1629208316021,target,256,male,5,l,German,15,images/practice/feature/F_C_15_T_5_Xblue_TRAIN.jpg,Tue Aug 17 2021 15:20:20 GMT+0200 (Mitteleuropische Sommerzeit),1629206420737,31.588066666666666,3,practice
2640,1431,27,,color,correct,right,1629208316021,target,256,male,1,l,German,1,images/practice/feature/F_C_1_T_1_Tblue_TRAIN.jpg,Tue Aug 17 2021 15:20:20 GMT+0200 (Mitteleuropische Sommerzeit),1629206420737,31.588066666666666,4,practice
2640,3189,27,,shape,incorrect,right,1629208316021,target,256,male,7,s,German,30,images/practice/feature/F_C_30_T_8_Sgreen_TRAIN.jpg,Tue Aug 17 2021 15:20:20 GMT+0200 (Mitteleuropische Sommerzeit),1629206420737,31.588066666666666,5,practice
2640,1959,27,,shape,correct,right,1629208316021,no target,256,male,4,s,German,5,images/practice/feature/F_5_NT_TRAIN.jpg,Tue Aug 17 2021 15:20:20 GMT+0200 (Mitteleuropische Sommerzeit),1629206420737,31.588066666666666,6,practice
2640,3173,27,,shape,correct,right,1629208316021,no target,256,male,8,s,German,30,images/practice/feature/F_C_30_NT_1_TRAIN.jpg,Tue Aug 17 2021 15:20:20 GMT+0200 (Mitteleuropische Sommerzeit),1629206420737,31.588066666666666,7,practice
2640,2803,27,,color,correct,right,1629208316021,no target,256,male,6,s,German,15,images/practice/feature/F_C_15_NT_TRAIN.jpg,Tue Aug 17 2021 15:20:20 GMT+0200 (Mitteleuropische Sommerzeit),1629206420737,31.588066666666666,8,practice
2640,1473,27,,conjunction,correct,right,1629208316021,no target,256,male,20,s,German,5,images/practice/conjunction/C_5_NT_TRAIN.jpg,Tue Aug 17 2021 15:20:20 GMT+0200 (Mitteleuropische Sommerzeit),1629206420737,31.588066666666666,1,practice
