submission_id,RT,age,comments,condition,correctness,education,endTime,expected,experiment_id,gender,item,key_pressed,languages,number_of_items,picture,startDate,startTime,timeSpent,trial_number,trial_type
2686,8206,25,,color,incorrect,right,1629383070313,target,256,female,5,s,"Low German, German",15,images/practice/feature/F_C_15_T_5_Xblue_TRAIN.jpg,Thu Aug 19 2021 15:48:54 GMT+0200 (Mitteleuropäische Sommerzeit),1629380934780,35.592216666666666,1,practice
2686,8330,25,,shape,incorrect,right,1629383070313,no target,256,female,8,l,"Low German, German",30,images/practice/feature/F_C_30_NT_1_TRAIN.jpg,Thu Aug 19 2021 15:48:54 GMT+0200 (Mitteleuropäische Sommerzeit),1629380934780,35.592216666666666,2,practice
2686,2380,25,,color,correct,right,1629383070313,target,256,female,1,l,"Low German, German",1,images/practice/feature/F_C_1_T_1_Tblue_TRAIN.jpg,Thu Aug 19 2021 15:48:54 GMT+0200 (Mitteleuropäische Sommerzeit),1629380934780,35.592216666666666,3,practice
2686,2078,25,,shape,correct,right,1629383070313,target,256,female,7,l,"Low German, German",30,images/practice/feature/F_C_30_T_8_Sgreen_TRAIN.jpg,Thu Aug 19 2021 15:48:54 GMT+0200 (Mitteleuropäische Sommerzeit),1629380934780,35.592216666666666,4,practice
2686,3379,25,,color,correct,right,1629383070313,no target,256,female,6,s,"Low German, German",15,images/practice/feature/F_C_15_NT_TRAIN.jpg,Thu Aug 19 2021 15:48:54 GMT+0200 (Mitteleuropäische Sommerzeit),1629380934780,35.592216666666666,5,practice
2686,2037,25,,color,correct,right,1629383070313,no target,256,female,2,s,"Low German, German",1,images/practice/feature/F_1_NT_TRAIN.jpg,Thu Aug 19 2021 15:48:54 GMT+0200 (Mitteleuropäische Sommerzeit),1629380934780,35.592216666666666,6,practice
2686,1470,25,,shape,correct,right,1629383070313,no target,256,female,4,s,"Low German, German",5,images/practice/feature/F_5_NT_TRAIN.jpg,Thu Aug 19 2021 15:48:54 GMT+0200 (Mitteleuropäische Sommerzeit),1629380934780,35.592216666666666,7,practice
2686,1074,25,,shape,correct,right,1629383070313,target,256,female,3,l,"Low German, German",5,images/practice/feature/F_5_T_3_Sbrown_TRAIN.jpg,Thu Aug 19 2021 15:48:54 GMT+0200 (Mitteleuropäische Sommerzeit),1629380934780,35.592216666666666,8,practice
2686,2641,25,,conjunction,correct,right,1629383070313,no target,256,female,22,s,"Low German, German",15,images/practice/conjunction/C_15_NT_TRAIN.jpg,Thu Aug 19 2021 15:48:54 GMT+0200 (Mitteleuropäische Sommerzeit),1629380934780,35.592216666666666,1,practice
2686,1862,25,,conjunction,correct,right,1629383070313,target,256,female,23,l,"Low German, German",30,images/practice/conjunction/C_30_T_TRAIN.jpg,Thu Aug 19 2021 15:48:54 GMT+0200 (Mitteleuropäische Sommerzeit),1629380934780,35.592216666666666,2,practice
2686,1030,25,,conjunction,correct,right,1629383070313,target,256,female,19,l,"Low German, German",5,images/practice/conjunction/C_5_T_TRAIN.jpg,Thu Aug 19 2021 15:48:54 GMT+0200 (Mitteleuropäische Sommerzeit),1629380934780,35.592216666666666,3,practice
2686,3964,25,,conjunction,correct,right,1629383070313,no target,256,female,24,s,"Low German, German",30,images/practice/conjunction/C_30_NT_TRAIN.jpg,Thu Aug 19 2021 15:48:54 GMT+0200 (Mitteleuropäische Sommerzeit),1629380934780,35.592216666666666,4,practice
2686,1416,25,,conjunction,incorrect,right,1629383070313,no target,256,female,18,l,"Low German, German",1,images/practice/conjunction/C_1_NT_TRAIN.jpg,Thu Aug 19 2021 15:48:54 GMT+0200 (Mitteleuropäische Sommerzeit),1629380934780,35.592216666666666,5,practice
2686,1452,25,,conjunction,correct,right,1629383070313,target,256,female,21,l,"Low German, German",15,images/practice/conjunction/C_15_T_TRAIN.jpg,Thu Aug 19 2021 15:48:54 GMT+0200 (Mitteleuropäische Sommerzeit),1629380934780,35.592216666666666,6,practice
2686,1389,25,,conjunction,correct,right,1629383070313,no target,256,female,20,s,"Low German, German",5,images/practice/conjunction/C_5_NT_TRAIN.jpg,Thu Aug 19 2021 15:48:54 GMT+0200 (Mitteleuropäische Sommerzeit),1629380934780,35.592216666666666,7,practice
2686,1231,25,,conjunction,correct,right,1629383070313,target,256,female,17,l,"Low German, German",1,images/practice/conjunction/C_1_T_TRAIN.jpg,Thu Aug 19 2021 15:48:54 GMT+0200 (Mitteleuropäische Sommerzeit),1629380934780,35.592216666666666,8,practice
2686,3317,25,,color,correct,right,1629383070313,no target,256,female,82,s,"Low German, German",30,images/main/feature/30/no_target/F_C_30_NT_2.jpg,Thu Aug 19 2021 15:48:54 GMT+0200 (Mitteleuropäische Sommerzeit),1629380934780,35.592216666666666,1,main
2686,2171,25,,shape,correct,right,1629383070313,no target,256,female,56,s,"Low German, German",5,images/main/feature/5/no_target/F_C_5_NT_8.jpg,Thu Aug 19 2021 15:48:54 GMT+0200 (Mitteleuropäische Sommerzeit),1629380934780,35.592216666666666,2,main
2686,923,25,,shape,correct,right,1629383070313,no target,256,female,55,s,"Low German, German",5,images/main/feature/5/no_target/F_C_5_NT_7.jpg,Thu Aug 19 2021 15:48:54 GMT+0200 (Mitteleuropäische Sommerzeit),1629380934780,35.592216666666666,3,main
2686,1678,25,,color,correct,right,1629383070313,target,256,female,29,l,"Low German, German",1,images/main/feature/1/target/F_C_1_T_5_XBlue.jpg,Thu Aug 19 2021 15:48:54 GMT+0200 (Mitteleuropäische Sommerzeit),1629380934780,35.592216666666666,4,main
2686,899,25,,color,correct,right,1629383070313,target,256,female,61,l,"Low German, German",15,images/main/feature/15/target/F_C_15_T_5_Xblue.jpg,Thu Aug 19 2021 15:48:54 GMT+0200 (Mitteleuropäische Sommerzeit),1629380934780,35.592216666666666,5,main
2686,1619,25,,shape,correct,right,1629383070313,no target,256,female,87,s,"Low German, German",30,images/main/feature/30/no_target/F_C_30_NT_7.jpg,Thu Aug 19 2021 15:48:54 GMT+0200 (Mitteleuropäische Sommerzeit),1629380934780,35.592216666666666,6,main
2686,1202,25,,shape,correct,right,1629383070313,target,256,female,76,l,"Low German, German",30,images/main/feature/30/target/F_C_30_T_4_Sbrown.jpg,Thu Aug 19 2021 15:48:54 GMT+0200 (Mitteleuropäische Sommerzeit),1629380934780,35.592216666666666,7,main
2686,1237,25,,color,correct,right,1629383070313,target,256,female,30,l,"Low German, German",1,images/main/feature/1/target/F_C_1_T_6_XBlue.jpg,Thu Aug 19 2021 15:48:54 GMT+0200 (Mitteleuropäische Sommerzeit),1629380934780,35.592216666666666,8,main
2686,2034,25,,color,correct,right,1629383070313,no target,256,female,66,s,"Low German, German",15,images/main/feature/15/no_target/F_C_15_NT_2.jpg,Thu Aug 19 2021 15:48:54 GMT+0200 (Mitteleuropäische Sommerzeit),1629380934780,35.592216666666666,9,main
2686,1702,25,,color,correct,right,1629383070313,no target,256,female,67,s,"Low German, German",15,images/main/feature/15/no_target/F_C_15_NT_3.jpg,Thu Aug 19 2021 15:48:54 GMT+0200 (Mitteleuropäische Sommerzeit),1629380934780,35.592216666666666,10,main
2686,2022,25,,shape,correct,right,1629383070313,target,256,female,48,l,"Low German, German",5,images/main/feature/5/target/F_C_5_T_8_Sgreen.jpg,Thu Aug 19 2021 15:48:54 GMT+0200 (Mitteleuropäische Sommerzeit),1629380934780,35.592216666666666,11,main
2686,1184,25,,color,correct,right,1629383070313,target,256,female,46,l,"Low German, German",5,images/main/feature/5/target/F_C_5_T_6_Xblue.jpg,Thu Aug 19 2021 15:48:54 GMT+0200 (Mitteleuropäische Sommerzeit),1629380934780,35.592216666666666,12,main
2686,1361,25,,shape,correct,right,1629383070313,no target,256,female,53,s,"Low German, German",5,images/main/feature/5/no_target/F_C_5_NT_5.jpg,Thu Aug 19 2021 15:48:54 GMT+0200 (Mitteleuropäische Sommerzeit),1629380934780,35.592216666666666,13,main
2686,2060,25,,color,correct,right,1629383070313,no target,256,female,65,s,"Low German, German",15,images/main/feature/15/no_target/F_C_15_NT_1.jpg,Thu Aug 19 2021 15:48:54 GMT+0200 (Mitteleuropäische Sommerzeit),1629380934780,35.592216666666666,14,main
2686,3133,25,,color,correct,right,1629383070313,no target,256,female,84,s,"Low German, German",30,images/main/feature/30/no_target/F_C_30_NT_4.jpg,Thu Aug 19 2021 15:48:54 GMT+0200 (Mitteleuropäische Sommerzeit),1629380934780,35.592216666666666,15,main
2686,2039,25,,color,correct,right,1629383070313,no target,256,female,33,s,"Low German, German",1,images/main/feature/1/no_target/F_C_1_NT_1.jpg,Thu Aug 19 2021 15:48:54 GMT+0200 (Mitteleuropäische Sommerzeit),1629380934780,35.592216666666666,16,main
2686,1280,25,,color,correct,right,1629383070313,no target,256,female,35,s,"Low German, German",1,images/main/feature/1/no_target/F_C_1_NT_3.jpg,Thu Aug 19 2021 15:48:54 GMT+0200 (Mitteleuropäische Sommerzeit),1629380934780,35.592216666666666,17,main
2686,3498,25,,color,correct,right,1629383070313,no target,256,female,81,s,"Low German, German",30,images/main/feature/30/no_target/F_C_30_NT_1.jpg,Thu Aug 19 2021 15:48:54 GMT+0200 (Mitteleuropäische Sommerzeit),1629380934780,35.592216666666666,18,main
2686,1298,25,,shape,correct,right,1629383070313,target,256,female,60,l,"Low German, German",15,images/main/feature/15/target/F_C_15_T_4_Sbrown.jpg,Thu Aug 19 2021 15:48:54 GMT+0200 (Mitteleuropäische Sommerzeit),1629380934780,35.592216666666666,19,main
2686,1282,25,,shape,correct,right,1629383070313,target,256,female,28,l,"Low German, German",1,images/main/feature/1/target/F_C_1_T_4_Sbrown.jpg,Thu Aug 19 2021 15:48:54 GMT+0200 (Mitteleuropäische Sommerzeit),1629380934780,35.592216666666666,20,main
2686,1480,25,,color,correct,right,1629383070313,target,256,female,41,l,"Low German, German",5,images/main/feature/5/target/F_C_5_T_1_Tblue.jpg,Thu Aug 19 2021 15:48:54 GMT+0200 (Mitteleuropäische Sommerzeit),1629380934780,35.592216666666666,21,main
2686,1366,25,,color,correct,right,1629383070313,target,256,female,77,l,"Low German, German",30,images/main/feature/30/target/F_C_30_T_5_Xblue.jpg,Thu Aug 19 2021 15:48:54 GMT+0200 (Mitteleuropäische Sommerzeit),1629380934780,35.592216666666666,22,main
2686,1720,25,,shape,incorrect,right,1629383070313,no target,256,female,70,l,"Low German, German",15,images/main/feature/15/no_target/F_C_15_NT_6.jpg,Thu Aug 19 2021 15:48:54 GMT+0200 (Mitteleuropäische Sommerzeit),1629380934780,35.592216666666666,23,main
2686,2971,25,,shape,correct,right,1629383070313,no target,256,female,85,s,"Low German, German",30,images/main/feature/30/no_target/F_C_30_NT_5.jpg,Thu Aug 19 2021 15:48:54 GMT+0200 (Mitteleuropäische Sommerzeit),1629380934780,35.592216666666666,24,main
2686,1001,25,,color,correct,right,1629383070313,target,256,female,57,l,"Low German, German",15,images/main/feature/15/target/F_C_15_T_1_Tblue.jpg,Thu Aug 19 2021 15:48:54 GMT+0200 (Mitteleuropäische Sommerzeit),1629380934780,35.592216666666666,25,main
2686,1485,25,,shape,correct,right,1629383070313,target,256,female,63,l,"Low German, German",15,images/main/feature/15/target/F_C_15_T_7_Sgreen.jpg,Thu Aug 19 2021 15:48:54 GMT+0200 (Mitteleuropäische Sommerzeit),1629380934780,35.592216666666666,26,main
2686,1218,25,,color,correct,right,1629383070313,no target,256,female,50,s,"Low German, German",5,images/main/feature/5/no_target/F_C_5_NT_2.jpg,Thu Aug 19 2021 15:48:54 GMT+0200 (Mitteleuropäische Sommerzeit),1629380934780,35.592216666666666,27,main
2686,1141,25,,color,correct,right,1629383070313,target,256,female,58,l,"Low German, German",15,images/main/feature/15/target/F_C_15_T_2_Tblue.jpg,Thu Aug 19 2021 15:48:54 GMT+0200 (Mitteleuropäische Sommerzeit),1629380934780,35.592216666666666,28,main
2686,1210,25,,shape,correct,right,1629383070313,target,256,female,59,l,"Low German, German",15,images/main/feature/15/target/F_C_15_T_3_Sbrown.jpg,Thu Aug 19 2021 15:48:54 GMT+0200 (Mitteleuropäische Sommerzeit),1629380934780,35.592216666666666,29,main
2686,1945,25,,color,correct,right,1629383070313,no target,256,female,49,s,"Low German, German",5,images/main/feature/5/no_target/F_C_5_NT_1.jpg,Thu Aug 19 2021 15:48:54 GMT+0200 (Mitteleuropäische Sommerzeit),1629380934780,35.592216666666666,30,main
2686,1451,25,,color,correct,right,1629383070313,no target,256,female,34,s,"Low German, German",1,images/main/feature/1/no_target/F_C_1_NT_2.jpg,Thu Aug 19 2021 15:48:54 GMT+0200 (Mitteleuropäische Sommerzeit),1629380934780,35.592216666666666,31,main
2686,2087,25,,shape,correct,right,1629383070313,no target,256,female,72,s,"Low German, German",15,images/main/feature/15/no_target/F_C_15_NT_8.jpg,Thu Aug 19 2021 15:48:54 GMT+0200 (Mitteleuropäische Sommerzeit),1629380934780,35.592216666666666,32,main
2686,1116,25,,shape,correct,right,1629383070313,no target,256,female,39,s,"Low German, German",1,images/main/feature/1/no_target/F_C_1_NT_7.jpg,Thu Aug 19 2021 15:48:54 GMT+0200 (Mitteleuropäische Sommerzeit),1629380934780,35.592216666666666,33,main
2686,962,25,,shape,correct,right,1629383070313,no target,256,female,38,s,"Low German, German",1,images/main/feature/1/no_target/F_C_1_NT_6.jpg,Thu Aug 19 2021 15:48:54 GMT+0200 (Mitteleuropäische Sommerzeit),1629380934780,35.592216666666666,34,main
2686,1456,25,,shape,correct,right,1629383070313,target,256,female,79,l,"Low German, German",30,images/main/feature/30/target/F_C_30_T_7_Sgreen.jpg,Thu Aug 19 2021 15:48:54 GMT+0200 (Mitteleuropäische Sommerzeit),1629380934780,35.592216666666666,35,main
2686,1354,25,,color,correct,right,1629383070313,target,256,female,78,l,"Low German, German",30,images/main/feature/30/target/F_C_30_T_6_Xblue.jpg,Thu Aug 19 2021 15:48:54 GMT+0200 (Mitteleuropäische Sommerzeit),1629380934780,35.592216666666666,36,main
2686,1875,25,,color,correct,right,1629383070313,no target,256,female,68,s,"Low German, German",15,images/main/feature/15/no_target/F_C_15_NT_4.jpg,Thu Aug 19 2021 15:48:54 GMT+0200 (Mitteleuropäische Sommerzeit),1629380934780,35.592216666666666,37,main
2686,1266,25,,color,correct,right,1629383070313,target,256,female,26,l,"Low German, German",1,images/main/feature/1/target/F_C_1_T_2_Tblue.jpg,Thu Aug 19 2021 15:48:54 GMT+0200 (Mitteleuropäische Sommerzeit),1629380934780,35.592216666666666,38,main
2686,1052,25,,color,correct,right,1629383070313,target,256,female,62,l,"Low German, German",15,images/main/feature/15/target/F_C_15_T_6_Xblue.jpg,Thu Aug 19 2021 15:48:54 GMT+0200 (Mitteleuropäische Sommerzeit),1629380934780,35.592216666666666,39,main
2686,899,25,,shape,correct,right,1629383070313,target,256,female,27,l,"Low German, German",1,images/main/feature/1/target/F_C_1_T_3_Sbrown.jpg,Thu Aug 19 2021 15:48:54 GMT+0200 (Mitteleuropäische Sommerzeit),1629380934780,35.592216666666666,40,main
2686,922,25,,color,correct,right,1629383070313,target,256,female,25,l,"Low German, German",1,images/main/feature/1/target/F_C_1_T_1_Tblue.jpg,Thu Aug 19 2021 15:48:54 GMT+0200 (Mitteleuropäische Sommerzeit),1629380934780,35.592216666666666,41,main
2686,1271,25,,color,correct,right,1629383070313,target,256,female,42,l,"Low German, German",5,images/main/feature/5/target/F_C_5_T_2_Tblue.jpg,Thu Aug 19 2021 15:48:54 GMT+0200 (Mitteleuropäische Sommerzeit),1629380934780,35.592216666666666,42,main
2686,2403,25,,shape,correct,right,1629383070313,no target,256,female,88,s,"Low German, German",30,images/main/feature/30/no_target/F_C_30_NT_8.jpg,Thu Aug 19 2021 15:48:54 GMT+0200 (Mitteleuropäische Sommerzeit),1629380934780,35.592216666666666,43,main
2686,1560,25,,shape,correct,right,1629383070313,target,256,female,31,l,"Low German, German",1,images/main/feature/1/target/F_C_1_T_7_Sgreen.jpg,Thu Aug 19 2021 15:48:54 GMT+0200 (Mitteleuropäische Sommerzeit),1629380934780,35.592216666666666,44,main
2686,1205,25,,color,correct,right,1629383070313,target,256,female,45,l,"Low German, German",5,images/main/feature/5/target/F_C_5_T_5_Xblue.jpg,Thu Aug 19 2021 15:48:54 GMT+0200 (Mitteleuropäische Sommerzeit),1629380934780,35.592216666666666,45,main
2686,2621,25,,shape,correct,right,1629383070313,no target,256,female,86,s,"Low German, German",30,images/main/feature/30/no_target/F_C_30_NT_6.jpg,Thu Aug 19 2021 15:48:54 GMT+0200 (Mitteleuropäische Sommerzeit),1629380934780,35.592216666666666,46,main
2686,1359,25,,shape,correct,right,1629383070313,target,256,female,80,l,"Low German, German",30,images/main/feature/30/target/F_C_30_T_8_Sgreen.jpg,Thu Aug 19 2021 15:48:54 GMT+0200 (Mitteleuropäische Sommerzeit),1629380934780,35.592216666666666,47,main
2686,1501,25,,color,correct,right,1629383070313,no target,256,female,36,s,"Low German, German",1,images/main/feature/1/no_target/F_C_1_NT_4.jpg,Thu Aug 19 2021 15:48:54 GMT+0200 (Mitteleuropäische Sommerzeit),1629380934780,35.592216666666666,48,main
2686,1181,25,,color,correct,right,1629383070313,target,256,female,73,l,"Low German, German",30,images/main/feature/30/target/F_C_30_T_1_Tblue.jpg,Thu Aug 19 2021 15:48:54 GMT+0200 (Mitteleuropäische Sommerzeit),1629380934780,35.592216666666666,49,main
2686,1180,25,,shape,correct,right,1629383070313,no target,256,female,40,s,"Low German, German",1,images/main/feature/1/no_target/F_C_1_NT_8.jpg,Thu Aug 19 2021 15:48:54 GMT+0200 (Mitteleuropäische Sommerzeit),1629380934780,35.592216666666666,50,main
2686,1159,25,,shape,correct,right,1629383070313,target,256,female,75,l,"Low German, German",30,images/main/feature/30/target/F_C_30_T_3_Sbrown.jpg,Thu Aug 19 2021 15:48:54 GMT+0200 (Mitteleuropäische Sommerzeit),1629380934780,35.592216666666666,51,main
2686,1808,25,,shape,correct,right,1629383070313,target,256,female,64,l,"Low German, German",15,images/main/feature/15/target/F_C_15_T_8_Sgreen.jpg,Thu Aug 19 2021 15:48:54 GMT+0200 (Mitteleuropäische Sommerzeit),1629380934780,35.592216666666666,52,main
2686,1504,25,,color,correct,right,1629383070313,no target,256,female,51,s,"Low German, German",5,images/main/feature/5/no_target/F_C_5_NT_3.jpg,Thu Aug 19 2021 15:48:54 GMT+0200 (Mitteleuropäische Sommerzeit),1629380934780,35.592216666666666,53,main
2686,1031,25,,color,correct,right,1629383070313,target,256,female,74,l,"Low German, German",30,images/main/feature/30/target/F_C_30_T_2_Tblue.jpg,Thu Aug 19 2021 15:48:54 GMT+0200 (Mitteleuropäische Sommerzeit),1629380934780,35.592216666666666,54,main
2686,1292,25,,shape,correct,right,1629383070313,target,256,female,32,l,"Low German, German",1,images/main/feature/1/target/F_C_1_T_8_Sgreen.jpg,Thu Aug 19 2021 15:48:54 GMT+0200 (Mitteleuropäische Sommerzeit),1629380934780,35.592216666666666,55,main
2686,1103,25,,shape,correct,right,1629383070313,target,256,female,44,l,"Low German, German",5,images/main/feature/5/target/F_C_5_T_4_Sbrown.jpg,Thu Aug 19 2021 15:48:54 GMT+0200 (Mitteleuropäische Sommerzeit),1629380934780,35.592216666666666,56,main
2686,2377,25,,color,correct,right,1629383070313,no target,256,female,83,s,"Low German, German",30,images/main/feature/30/no_target/F_C_30_NT_3.jpg,Thu Aug 19 2021 15:48:54 GMT+0200 (Mitteleuropäische Sommerzeit),1629380934780,35.592216666666666,57,main
2686,1108,25,,shape,correct,right,1629383070313,target,256,female,43,l,"Low German, German",5,images/main/feature/5/target/F_C_5_T_3_Sbrown.jpg,Thu Aug 19 2021 15:48:54 GMT+0200 (Mitteleuropäische Sommerzeit),1629380934780,35.592216666666666,58,main
2686,986,25,,shape,correct,right,1629383070313,target,256,female,47,l,"Low German, German",5,images/main/feature/5/target/F_C_5_T_7_Sgreen.jpg,Thu Aug 19 2021 15:48:54 GMT+0200 (Mitteleuropäische Sommerzeit),1629380934780,35.592216666666666,59,main
2686,1017,25,,shape,correct,right,1629383070313,no target,256,female,37,s,"Low German, German",1,images/main/feature/1/no_target/F_C_1_NT_5.jpg,Thu Aug 19 2021 15:48:54 GMT+0200 (Mitteleuropäische Sommerzeit),1629380934780,35.592216666666666,60,main
2686,1509,25,,shape,correct,right,1629383070313,no target,256,female,69,s,"Low German, German",15,images/main/feature/15/no_target/F_C_15_NT_5.jpg,Thu Aug 19 2021 15:48:54 GMT+0200 (Mitteleuropäische Sommerzeit),1629380934780,35.592216666666666,61,main
2686,1201,25,,color,correct,right,1629383070313,no target,256,female,52,s,"Low German, German",5,images/main/feature/5/no_target/F_C_5_NT_4.jpg,Thu Aug 19 2021 15:48:54 GMT+0200 (Mitteleuropäische Sommerzeit),1629380934780,35.592216666666666,62,main
2686,1348,25,,shape,correct,right,1629383070313,no target,256,female,54,s,"Low German, German",5,images/main/feature/5/no_target/F_C_5_NT_6.jpg,Thu Aug 19 2021 15:48:54 GMT+0200 (Mitteleuropäische Sommerzeit),1629380934780,35.592216666666666,63,main
2686,1663,25,,shape,correct,right,1629383070313,no target,256,female,71,s,"Low German, German",15,images/main/feature/15/no_target/F_C_15_NT_7.jpg,Thu Aug 19 2021 15:48:54 GMT+0200 (Mitteleuropäische Sommerzeit),1629380934780,35.592216666666666,64,main
2686,915,25,,color,correct,right,1629383070313,no target,256,female,82,s,"Low German, German",30,images/main/feature/30/no_target/F_C_30_NT_2.jpg,Thu Aug 19 2021 15:48:54 GMT+0200 (Mitteleuropäische Sommerzeit),1629380934780,35.592216666666666,1,main
2686,1004,25,,color,correct,right,1629383070313,no target,256,female,81,s,"Low German, German",30,images/main/feature/30/no_target/F_C_30_NT_1.jpg,Thu Aug 19 2021 15:48:54 GMT+0200 (Mitteleuropäische Sommerzeit),1629380934780,35.592216666666666,2,main
2686,614,25,,color,correct,right,1629383070313,target,256,female,46,l,"Low German, German",5,images/main/feature/5/target/F_C_5_T_6_Xblue.jpg,Thu Aug 19 2021 15:48:54 GMT+0200 (Mitteleuropäische Sommerzeit),1629380934780,35.592216666666666,3,main
2686,733,25,,color,correct,right,1629383070313,no target,256,female,33,s,"Low German, German",1,images/main/feature/1/no_target/F_C_1_NT_1.jpg,Thu Aug 19 2021 15:48:54 GMT+0200 (Mitteleuropäische Sommerzeit),1629380934780,35.592216666666666,4,main
2686,1581,25,,shape,correct,right,1629383070313,target,256,female,48,l,"Low German, German",5,images/main/feature/5/target/F_C_5_T_8_Sgreen.jpg,Thu Aug 19 2021 15:48:54 GMT+0200 (Mitteleuropäische Sommerzeit),1629380934780,35.592216666666666,5,main
2686,763,25,,shape,correct,right,1629383070313,target,256,female,43,l,"Low German, German",5,images/main/feature/5/target/F_C_5_T_3_Sbrown.jpg,Thu Aug 19 2021 15:48:54 GMT+0200 (Mitteleuropäische Sommerzeit),1629380934780,35.592216666666666,6,main
2686,963,25,,shape,correct,right,1629383070313,no target,256,female,53,s,"Low German, German",5,images/main/feature/5/no_target/F_C_5_NT_5.jpg,Thu Aug 19 2021 15:48:54 GMT+0200 (Mitteleuropäische Sommerzeit),1629380934780,35.592216666666666,7,main
2686,1154,25,,color,correct,right,1629383070313,no target,256,female,49,s,"Low German, German",5,images/main/feature/5/no_target/F_C_5_NT_1.jpg,Thu Aug 19 2021 15:48:54 GMT+0200 (Mitteleuropäische Sommerzeit),1629380934780,35.592216666666666,8,main
2686,755,25,,color,correct,right,1629383070313,no target,256,female,50,s,"Low German, German",5,images/main/feature/5/no_target/F_C_5_NT_2.jpg,Thu Aug 19 2021 15:48:54 GMT+0200 (Mitteleuropäische Sommerzeit),1629380934780,35.592216666666666,9,main
2686,739,25,,color,correct,right,1629383070313,target,256,female,41,l,"Low German, German",5,images/main/feature/5/target/F_C_5_T_1_Tblue.jpg,Thu Aug 19 2021 15:48:54 GMT+0200 (Mitteleuropäische Sommerzeit),1629380934780,35.592216666666666,10,main
2686,783,25,,color,correct,right,1629383070313,target,256,female,61,l,"Low German, German",15,images/main/feature/15/target/F_C_15_T_5_Xblue.jpg,Thu Aug 19 2021 15:48:54 GMT+0200 (Mitteleuropäische Sommerzeit),1629380934780,35.592216666666666,11,main
2686,775,25,,shape,correct,right,1629383070313,target,256,female,27,l,"Low German, German",1,images/main/feature/1/target/F_C_1_T_3_Sbrown.jpg,Thu Aug 19 2021 15:48:54 GMT+0200 (Mitteleuropäische Sommerzeit),1629380934780,35.592216666666666,12,main
2686,1230,25,,shape,correct,right,1629383070313,no target,256,female,70,s,"Low German, German",15,images/main/feature/15/no_target/F_C_15_NT_6.jpg,Thu Aug 19 2021 15:48:54 GMT+0200 (Mitteleuropäische Sommerzeit),1629380934780,35.592216666666666,13,main
2686,1090,25,,shape,correct,right,1629383070313,target,256,female,63,l,"Low German, German",15,images/main/feature/15/target/F_C_15_T_7_Sgreen.jpg,Thu Aug 19 2021 15:48:54 GMT+0200 (Mitteleuropäische Sommerzeit),1629380934780,35.592216666666666,14,main
2686,604,25,,color,correct,right,1629383070313,target,256,female,62,l,"Low German, German",15,images/main/feature/15/target/F_C_15_T_6_Xblue.jpg,Thu Aug 19 2021 15:48:54 GMT+0200 (Mitteleuropäische Sommerzeit),1629380934780,35.592216666666666,15,main
2686,888,25,,shape,correct,right,1629383070313,target,256,female,47,l,"Low German, German",5,images/main/feature/5/target/F_C_5_T_7_Sgreen.jpg,Thu Aug 19 2021 15:48:54 GMT+0200 (Mitteleuropäische Sommerzeit),1629380934780,35.592216666666666,16,main
2686,965,25,,shape,correct,right,1629383070313,no target,256,female,37,s,"Low German, German",1,images/main/feature/1/no_target/F_C_1_NT_5.jpg,Thu Aug 19 2021 15:48:54 GMT+0200 (Mitteleuropäische Sommerzeit),1629380934780,35.592216666666666,17,main
2686,900,25,,color,correct,right,1629383070313,target,256,female,57,l,"Low German, German",15,images/main/feature/15/target/F_C_15_T_1_Tblue.jpg,Thu Aug 19 2021 15:48:54 GMT+0200 (Mitteleuropäische Sommerzeit),1629380934780,35.592216666666666,18,main
2686,1038,25,,color,correct,right,1629383070313,no target,256,female,68,s,"Low German, German",15,images/main/feature/15/no_target/F_C_15_NT_4.jpg,Thu Aug 19 2021 15:48:54 GMT+0200 (Mitteleuropäische Sommerzeit),1629380934780,35.592216666666666,19,main
2686,1041,25,,shape,correct,right,1629383070313,target,256,female,60,l,"Low German, German",15,images/main/feature/15/target/F_C_15_T_4_Sbrown.jpg,Thu Aug 19 2021 15:48:54 GMT+0200 (Mitteleuropäische Sommerzeit),1629380934780,35.592216666666666,20,main
2686,1451,25,,color,correct,right,1629383070313,no target,256,female,66,s,"Low German, German",15,images/main/feature/15/no_target/F_C_15_NT_2.jpg,Thu Aug 19 2021 15:48:54 GMT+0200 (Mitteleuropäische Sommerzeit),1629380934780,35.592216666666666,21,main
2686,970,25,,shape,correct,right,1629383070313,target,256,female,59,l,"Low German, German",15,images/main/feature/15/target/F_C_15_T_3_Sbrown.jpg,Thu Aug 19 2021 15:48:54 GMT+0200 (Mitteleuropäische Sommerzeit),1629380934780,35.592216666666666,22,main
2686,901,25,,shape,correct,right,1629383070313,target,256,female,80,l,"Low German, German",30,images/main/feature/30/target/F_C_30_T_8_Sgreen.jpg,Thu Aug 19 2021 15:48:54 GMT+0200 (Mitteleuropäische Sommerzeit),1629380934780,35.592216666666666,23,main
2686,1090,25,,shape,correct,right,1629383070313,no target,256,female,54,s,"Low German, German",5,images/main/feature/5/no_target/F_C_5_NT_6.jpg,Thu Aug 19 2021 15:48:54 GMT+0200 (Mitteleuropäische Sommerzeit),1629380934780,35.592216666666666,24,main
2686,554,25,,color,correct,right,1629383070313,target,256,female,26,l,"Low German, German",1,images/main/feature/1/target/F_C_1_T_2_Tblue.jpg,Thu Aug 19 2021 15:48:54 GMT+0200 (Mitteleuropäische Sommerzeit),1629380934780,35.592216666666666,25,main
2686,495,25,,color,correct,right,1629383070313,target,256,female,25,l,"Low German, German",1,images/main/feature/1/target/F_C_1_T_1_Tblue.jpg,Thu Aug 19 2021 15:48:54 GMT+0200 (Mitteleuropäische Sommerzeit),1629380934780,35.592216666666666,26,main
2686,767,25,,color,correct,right,1629383070313,no target,256,female,36,s,"Low German, German",1,images/main/feature/1/no_target/F_C_1_NT_4.jpg,Thu Aug 19 2021 15:48:54 GMT+0200 (Mitteleuropäische Sommerzeit),1629380934780,35.592216666666666,27,main
2686,1074,25,,color,correct,right,1629383070313,no target,256,female,51,s,"Low German, German",5,images/main/feature/5/no_target/F_C_5_NT_3.jpg,Thu Aug 19 2021 15:48:54 GMT+0200 (Mitteleuropäische Sommerzeit),1629380934780,35.592216666666666,28,main
2686,811,25,,shape,correct,right,1629383070313,no target,256,female,38,s,"Low German, German",1,images/main/feature/1/no_target/F_C_1_NT_6.jpg,Thu Aug 19 2021 15:48:54 GMT+0200 (Mitteleuropäische Sommerzeit),1629380934780,35.592216666666666,29,main
2686,775,25,,color,correct,right,1629383070313,no target,256,female,34,s,"Low German, German",1,images/main/feature/1/no_target/F_C_1_NT_2.jpg,Thu Aug 19 2021 15:48:54 GMT+0200 (Mitteleuropäische Sommerzeit),1629380934780,35.592216666666666,30,main
2686,693,25,,color,correct,right,1629383070313,target,256,female,73,l,"Low German, German",30,images/main/feature/30/target/F_C_30_T_1_Tblue.jpg,Thu Aug 19 2021 15:48:54 GMT+0200 (Mitteleuropäische Sommerzeit),1629380934780,35.592216666666666,31,main
2686,694,25,,color,correct,right,1629383070313,target,256,female,58,l,"Low German, German",15,images/main/feature/15/target/F_C_15_T_2_Tblue.jpg,Thu Aug 19 2021 15:48:54 GMT+0200 (Mitteleuropäische Sommerzeit),1629380934780,35.592216666666666,32,main
2686,898,25,,shape,correct,right,1629383070313,target,256,female,44,l,"Low German, German",5,images/main/feature/5/target/F_C_5_T_4_Sbrown.jpg,Thu Aug 19 2021 15:48:54 GMT+0200 (Mitteleuropäische Sommerzeit),1629380934780,35.592216666666666,33,main
2686,704,25,,color,correct,right,1629383070313,target,256,female,74,l,"Low German, German",30,images/main/feature/30/target/F_C_30_T_2_Tblue.jpg,Thu Aug 19 2021 15:48:54 GMT+0200 (Mitteleuropäische Sommerzeit),1629380934780,35.592216666666666,34,main
2686,898,25,,color,correct,right,1629383070313,no target,256,female,67,s,"Low German, German",15,images/main/feature/15/no_target/F_C_15_NT_3.jpg,Thu Aug 19 2021 15:48:54 GMT+0200 (Mitteleuropäische Sommerzeit),1629380934780,35.592216666666666,35,main
2686,950,25,,shape,correct,right,1629383070313,no target,256,female,69,s,"Low German, German",15,images/main/feature/15/no_target/F_C_15_NT_5.jpg,Thu Aug 19 2021 15:48:54 GMT+0200 (Mitteleuropäische Sommerzeit),1629380934780,35.592216666666666,36,main
2686,796,25,,color,correct,right,1629383070313,target,256,female,42,l,"Low German, German",5,images/main/feature/5/target/F_C_5_T_2_Tblue.jpg,Thu Aug 19 2021 15:48:54 GMT+0200 (Mitteleuropäische Sommerzeit),1629380934780,35.592216666666666,37,main
2686,605,25,,color,correct,right,1629383070313,target,256,female,29,l,"Low German, German",1,images/main/feature/1/target/F_C_1_T_5_XBlue.jpg,Thu Aug 19 2021 15:48:54 GMT+0200 (Mitteleuropäische Sommerzeit),1629380934780,35.592216666666666,38,main
2686,1253,25,,shape,correct,right,1629383070313,no target,256,female,72,s,"Low German, German",15,images/main/feature/15/no_target/F_C_15_NT_8.jpg,Thu Aug 19 2021 15:48:54 GMT+0200 (Mitteleuropäische Sommerzeit),1629380934780,35.592216666666666,39,main
2686,1127,25,,shape,correct,right,1629383070313,no target,256,female,85,s,"Low German, German",30,images/main/feature/30/no_target/F_C_30_NT_5.jpg,Thu Aug 19 2021 15:48:54 GMT+0200 (Mitteleuropäische Sommerzeit),1629380934780,35.592216666666666,40,main
2686,1236,25,,color,correct,right,1629383070313,no target,256,female,65,s,"Low German, German",15,images/main/feature/15/no_target/F_C_15_NT_1.jpg,Thu Aug 19 2021 15:48:54 GMT+0200 (Mitteleuropäische Sommerzeit),1629380934780,35.592216666666666,41,main
2686,1082,25,,color,correct,right,1629383070313,no target,256,female,35,s,"Low German, German",1,images/main/feature/1/no_target/F_C_1_NT_3.jpg,Thu Aug 19 2021 15:48:54 GMT+0200 (Mitteleuropäische Sommerzeit),1629380934780,35.592216666666666,42,main
2686,678,25,,shape,correct,right,1629383070313,no target,256,female,56,s,"Low German, German",5,images/main/feature/5/no_target/F_C_5_NT_8.jpg,Thu Aug 19 2021 15:48:54 GMT+0200 (Mitteleuropäische Sommerzeit),1629380934780,35.592216666666666,43,main
2686,864,25,,shape,correct,right,1629383070313,target,256,female,79,l,"Low German, German",30,images/main/feature/30/target/F_C_30_T_7_Sgreen.jpg,Thu Aug 19 2021 15:48:54 GMT+0200 (Mitteleuropäische Sommerzeit),1629380934780,35.592216666666666,44,main
2686,942,25,,color,correct,right,1629383070313,no target,256,female,52,s,"Low German, German",5,images/main/feature/5/no_target/F_C_5_NT_4.jpg,Thu Aug 19 2021 15:48:54 GMT+0200 (Mitteleuropäische Sommerzeit),1629380934780,35.592216666666666,45,main
2686,983,25,,shape,correct,right,1629383070313,no target,256,female,55,s,"Low German, German",5,images/main/feature/5/no_target/F_C_5_NT_7.jpg,Thu Aug 19 2021 15:48:54 GMT+0200 (Mitteleuropäische Sommerzeit),1629380934780,35.592216666666666,46,main
2686,1165,25,,shape,correct,right,1629383070313,no target,256,female,87,s,"Low German, German",30,images/main/feature/30/no_target/F_C_30_NT_7.jpg,Thu Aug 19 2021 15:48:54 GMT+0200 (Mitteleuropäische Sommerzeit),1629380934780,35.592216666666666,47,main
2686,782,25,,shape,correct,right,1629383070313,no target,256,female,86,s,"Low German, German",30,images/main/feature/30/no_target/F_C_30_NT_6.jpg,Thu Aug 19 2021 15:48:54 GMT+0200 (Mitteleuropäische Sommerzeit),1629380934780,35.592216666666666,48,main
2686,882,25,,shape,correct,right,1629383070313,target,256,female,75,l,"Low German, German",30,images/main/feature/30/target/F_C_30_T_3_Sbrown.jpg,Thu Aug 19 2021 15:48:54 GMT+0200 (Mitteleuropäische Sommerzeit),1629380934780,35.592216666666666,49,main
2686,805,25,,shape,correct,right,1629383070313,no target,256,female,71,s,"Low German, German",15,images/main/feature/15/no_target/F_C_15_NT_7.jpg,Thu Aug 19 2021 15:48:54 GMT+0200 (Mitteleuropäische Sommerzeit),1629380934780,35.592216666666666,50,main
2686,878,25,,shape,correct,right,1629383070313,target,256,female,76,l,"Low German, German",30,images/main/feature/30/target/F_C_30_T_4_Sbrown.jpg,Thu Aug 19 2021 15:48:54 GMT+0200 (Mitteleuropäische Sommerzeit),1629380934780,35.592216666666666,51,main
2686,1801,25,,color,correct,right,1629383070313,no target,256,female,84,s,"Low German, German",30,images/main/feature/30/no_target/F_C_30_NT_4.jpg,Thu Aug 19 2021 15:48:54 GMT+0200 (Mitteleuropäische Sommerzeit),1629380934780,35.592216666666666,52,main
2686,1090,25,,shape,correct,right,1629383070313,target,256,female,28,l,"Low German, German",1,images/main/feature/1/target/F_C_1_T_4_Sbrown.jpg,Thu Aug 19 2021 15:48:54 GMT+0200 (Mitteleuropäische Sommerzeit),1629380934780,35.592216666666666,53,main
2686,994,25,,shape,correct,right,1629383070313,target,256,female,64,l,"Low German, German",15,images/main/feature/15/target/F_C_15_T_8_Sgreen.jpg,Thu Aug 19 2021 15:48:54 GMT+0200 (Mitteleuropäische Sommerzeit),1629380934780,35.592216666666666,54,main
2686,662,25,,color,correct,right,1629383070313,target,256,female,77,l,"Low German, German",30,images/main/feature/30/target/F_C_30_T_5_Xblue.jpg,Thu Aug 19 2021 15:48:54 GMT+0200 (Mitteleuropäische Sommerzeit),1629380934780,35.592216666666666,55,main
2686,1157,25,,shape,correct,right,1629383070313,no target,256,female,39,s,"Low German, German",1,images/main/feature/1/no_target/F_C_1_NT_7.jpg,Thu Aug 19 2021 15:48:54 GMT+0200 (Mitteleuropäische Sommerzeit),1629380934780,35.592216666666666,56,main
2686,703,25,,color,correct,right,1629383070313,target,256,female,78,l,"Low German, German",30,images/main/feature/30/target/F_C_30_T_6_Xblue.jpg,Thu Aug 19 2021 15:48:54 GMT+0200 (Mitteleuropäische Sommerzeit),1629380934780,35.592216666666666,57,main
2686,921,25,,shape,correct,right,1629383070313,no target,256,female,40,s,"Low German, German",1,images/main/feature/1/no_target/F_C_1_NT_8.jpg,Thu Aug 19 2021 15:48:54 GMT+0200 (Mitteleuropäische Sommerzeit),1629380934780,35.592216666666666,58,main
2686,645,25,,color,correct,right,1629383070313,target,256,female,45,l,"Low German, German",5,images/main/feature/5/target/F_C_5_T_5_Xblue.jpg,Thu Aug 19 2021 15:48:54 GMT+0200 (Mitteleuropäische Sommerzeit),1629380934780,35.592216666666666,59,main
2686,763,25,,color,correct,right,1629383070313,target,256,female,30,l,"Low German, German",1,images/main/feature/1/target/F_C_1_T_6_XBlue.jpg,Thu Aug 19 2021 15:48:54 GMT+0200 (Mitteleuropäische Sommerzeit),1629380934780,35.592216666666666,60,main
2686,1128,25,,shape,correct,right,1629383070313,no target,256,female,88,s,"Low German, German",30,images/main/feature/30/no_target/F_C_30_NT_8.jpg,Thu Aug 19 2021 15:48:54 GMT+0200 (Mitteleuropäische Sommerzeit),1629380934780,35.592216666666666,61,main
2686,958,25,,color,correct,right,1629383070313,no target,256,female,83,s,"Low German, German",30,images/main/feature/30/no_target/F_C_30_NT_3.jpg,Thu Aug 19 2021 15:48:54 GMT+0200 (Mitteleuropäische Sommerzeit),1629380934780,35.592216666666666,62,main
2686,904,25,,shape,correct,right,1629383070313,target,256,female,32,l,"Low German, German",1,images/main/feature/1/target/F_C_1_T_8_Sgreen.jpg,Thu Aug 19 2021 15:48:54 GMT+0200 (Mitteleuropäische Sommerzeit),1629380934780,35.592216666666666,63,main
2686,596,25,,shape,correct,right,1629383070313,target,256,female,31,l,"Low German, German",1,images/main/feature/1/target/F_C_1_T_7_Sgreen.jpg,Thu Aug 19 2021 15:48:54 GMT+0200 (Mitteleuropäische Sommerzeit),1629380934780,35.592216666666666,64,main
2686,795,25,,conjunction,correct,right,1629383070313,no target,256,female,167,s,"Low German, German",1,images/main/conjunction/1/no_target/C_1_NT_7.jpg,Thu Aug 19 2021 15:48:54 GMT+0200 (Mitteleuropäische Sommerzeit),1629380934780,35.592216666666666,1,main
2686,2016,25,,conjunction,correct,right,1629383070313,target,256,female,189,l,"Low German, German",15,images/main/conjunction/15/target/C_15_T_5.jpg,Thu Aug 19 2021 15:48:54 GMT+0200 (Mitteleuropäische Sommerzeit),1629380934780,35.592216666666666,2,main
2686,830,25,,conjunction,correct,right,1629383070313,target,256,female,186,l,"Low German, German",15,images/main/conjunction/15/target/C_15_T_2.jpg,Thu Aug 19 2021 15:48:54 GMT+0200 (Mitteleuropäische Sommerzeit),1629380934780,35.592216666666666,3,main
2686,1192,25,,conjunction,correct,right,1629383070313,no target,256,female,178,s,"Low German, German",5,images/main/conjunction/5/no_target/C_5_NT_2.jpg,Thu Aug 19 2021 15:48:54 GMT+0200 (Mitteleuropäische Sommerzeit),1629380934780,35.592216666666666,4,main
2686,860,25,,conjunction,correct,right,1629383070313,no target,256,female,182,s,"Low German, German",5,images/main/conjunction/5/no_target/C_5_NT_6.jpg,Thu Aug 19 2021 15:48:54 GMT+0200 (Mitteleuropäische Sommerzeit),1629380934780,35.592216666666666,5,main
2686,1356,25,,conjunction,incorrect,right,1629383070313,target,256,female,205,s,"Low German, German",30,images/main/conjunction/30/target/C_30_T_5.jpg,Thu Aug 19 2021 15:48:54 GMT+0200 (Mitteleuropäische Sommerzeit),1629380934780,35.592216666666666,6,main
2686,1912,25,,conjunction,incorrect,right,1629383070313,target,256,female,191,s,"Low German, German",15,images/main/conjunction/15/target/C_15_T_7.jpg,Thu Aug 19 2021 15:48:54 GMT+0200 (Mitteleuropäische Sommerzeit),1629380934780,35.592216666666666,7,main
2686,2039,25,,conjunction,correct,right,1629383070313,target,256,female,208,l,"Low German, German",30,images/main/conjunction/30/target/C_30_T_8.jpg,Thu Aug 19 2021 15:48:54 GMT+0200 (Mitteleuropäische Sommerzeit),1629380934780,35.592216666666666,8,main
2686,1640,25,,conjunction,correct,right,1629383070313,no target,256,female,214,s,"Low German, German",30,images/main/conjunction/30/no_target/C_30_NT_6.jpg,Thu Aug 19 2021 15:48:54 GMT+0200 (Mitteleuropäische Sommerzeit),1629380934780,35.592216666666666,9,main
2686,953,25,,conjunction,correct,right,1629383070313,no target,256,female,183,s,"Low German, German",5,images/main/conjunction/5/no_target/C_5_NT_7.jpg,Thu Aug 19 2021 15:48:54 GMT+0200 (Mitteleuropäische Sommerzeit),1629380934780,35.592216666666666,10,main
2686,2343,25,,conjunction,correct,right,1629383070313,no target,256,female,211,s,"Low German, German",30,images/main/conjunction/30/no_target/C_30_NT_3.jpg,Thu Aug 19 2021 15:48:54 GMT+0200 (Mitteleuropäische Sommerzeit),1629380934780,35.592216666666666,11,main
2686,1015,25,,conjunction,correct,right,1629383070313,target,256,female,174,l,"Low German, German",5,images/main/conjunction/5/target/C_5_T_6.jpg,Thu Aug 19 2021 15:48:54 GMT+0200 (Mitteleuropäische Sommerzeit),1629380934780,35.592216666666666,12,main
2686,991,25,,conjunction,correct,right,1629383070313,no target,256,female,163,s,"Low German, German",1,images/main/conjunction/1/no_target/C_1_NT_3.jpg,Thu Aug 19 2021 15:48:54 GMT+0200 (Mitteleuropäische Sommerzeit),1629380934780,35.592216666666666,13,main
2686,1375,25,,conjunction,correct,right,1629383070313,target,256,female,187,l,"Low German, German",15,images/main/conjunction/15/target/C_15_T_3.jpg,Thu Aug 19 2021 15:48:54 GMT+0200 (Mitteleuropäische Sommerzeit),1629380934780,35.592216666666666,14,main
2686,1762,25,,conjunction,correct,right,1629383070313,no target,256,female,212,s,"Low German, German",30,images/main/conjunction/30/no_target/C_30_NT_4.jpg,Thu Aug 19 2021 15:48:54 GMT+0200 (Mitteleuropäische Sommerzeit),1629380934780,35.592216666666666,15,main
2686,670,25,,conjunction,correct,right,1629383070313,target,256,female,154,l,"Low German, German",1,images/main/conjunction/1/target/C_1_T_2.jpg,Thu Aug 19 2021 15:48:54 GMT+0200 (Mitteleuropäische Sommerzeit),1629380934780,35.592216666666666,16,main
2686,1280,25,,conjunction,correct,right,1629383070313,target,256,female,201,l,"Low German, German",30,images/main/conjunction/30/target/C_30_T_1.jpg,Thu Aug 19 2021 15:48:54 GMT+0200 (Mitteleuropäische Sommerzeit),1629380934780,35.592216666666666,17,main
2686,1970,25,,conjunction,correct,right,1629383070313,no target,256,female,215,s,"Low German, German",30,images/main/conjunction/30/no_target/C_30_NT_7.jpg,Thu Aug 19 2021 15:48:54 GMT+0200 (Mitteleuropäische Sommerzeit),1629380934780,35.592216666666666,18,main
2686,1740,25,,conjunction,correct,right,1629383070313,no target,256,female,199,s,"Low German, German",15,images/main/conjunction/15/no_target/C_15_NT_7.jpg,Thu Aug 19 2021 15:48:54 GMT+0200 (Mitteleuropäische Sommerzeit),1629380934780,35.592216666666666,19,main
2686,1194,25,,conjunction,correct,right,1629383070313,no target,256,female,196,s,"Low German, German",15,images/main/conjunction/15/no_target/C_15_NT_4.jpg,Thu Aug 19 2021 15:48:54 GMT+0200 (Mitteleuropäische Sommerzeit),1629380934780,35.592216666666666,20,main
2686,758,25,,conjunction,correct,right,1629383070313,no target,256,female,164,s,"Low German, German",1,images/main/conjunction/1/no_target/C_1_NT_4.jpg,Thu Aug 19 2021 15:48:54 GMT+0200 (Mitteleuropäische Sommerzeit),1629380934780,35.592216666666666,21,main
2686,683,25,,conjunction,correct,right,1629383070313,target,256,female,190,l,"Low German, German",15,images/main/conjunction/15/target/C_15_T_6.jpg,Thu Aug 19 2021 15:48:54 GMT+0200 (Mitteleuropäische Sommerzeit),1629380934780,35.592216666666666,22,main
2686,945,25,,conjunction,correct,right,1629383070313,target,256,female,153,l,"Low German, German",1,images/main/conjunction/1/target/C_1_T_1.jpg,Thu Aug 19 2021 15:48:54 GMT+0200 (Mitteleuropäische Sommerzeit),1629380934780,35.592216666666666,23,main
2686,2240,25,,conjunction,incorrect,right,1629383070313,target,256,female,202,s,"Low German, German",30,images/main/conjunction/30/target/C_30_T_2.jpg,Thu Aug 19 2021 15:48:54 GMT+0200 (Mitteleuropäische Sommerzeit),1629380934780,35.592216666666666,24,main
2686,891,25,,conjunction,correct,right,1629383070313,no target,256,female,166,s,"Low German, German",1,images/main/conjunction/1/no_target/C_1_NT_6.jpg,Thu Aug 19 2021 15:48:54 GMT+0200 (Mitteleuropäische Sommerzeit),1629380934780,35.592216666666666,25,main
2686,963,25,,conjunction,correct,right,1629383070313,target,256,female,158,l,"Low German, German",1,images/main/conjunction/1/target/C_1_T_6.jpg,Thu Aug 19 2021 15:48:54 GMT+0200 (Mitteleuropäische Sommerzeit),1629380934780,35.592216666666666,26,main
2686,918,25,,conjunction,correct,right,1629383070313,target,256,female,171,l,"Low German, German",5,images/main/conjunction/5/target/C_5_T_3.jpg,Thu Aug 19 2021 15:48:54 GMT+0200 (Mitteleuropäische Sommerzeit),1629380934780,35.592216666666666,27,main
2686,1157,25,,conjunction,correct,right,1629383070313,no target,256,female,177,s,"Low German, German",5,images/main/conjunction/5/no_target/C_5_NT_1.jpg,Thu Aug 19 2021 15:48:54 GMT+0200 (Mitteleuropäische Sommerzeit),1629380934780,35.592216666666666,28,main
2686,1675,25,,conjunction,correct,right,1629383070313,target,256,female,203,l,"Low German, German",30,images/main/conjunction/30/target/C_30_T_3.jpg,Thu Aug 19 2021 15:48:54 GMT+0200 (Mitteleuropäische Sommerzeit),1629380934780,35.592216666666666,29,main
2686,1341,25,,conjunction,correct,right,1629383070313,no target,256,female,194,s,"Low German, German",15,images/main/conjunction/15/no_target/C_15_NT_2.jpg,Thu Aug 19 2021 15:48:54 GMT+0200 (Mitteleuropäische Sommerzeit),1629380934780,35.592216666666666,30,main
2686,1151,25,,conjunction,correct,right,1629383070313,target,256,female,204,l,"Low German, German",30,images/main/conjunction/30/target/C_30_T_4.jpg,Thu Aug 19 2021 15:48:54 GMT+0200 (Mitteleuropäische Sommerzeit),1629380934780,35.592216666666666,31,main
2686,1224,25,,conjunction,correct,right,1629383070313,no target,256,female,200,s,"Low German, German",15,images/main/conjunction/15/no_target/C_15_NT_8.jpg,Thu Aug 19 2021 15:48:54 GMT+0200 (Mitteleuropäische Sommerzeit),1629380934780,35.592216666666666,32,main
2686,1115,25,,conjunction,correct,right,1629383070313,target,256,female,173,l,"Low German, German",5,images/main/conjunction/5/target/C_5_T_5.jpg,Thu Aug 19 2021 15:48:54 GMT+0200 (Mitteleuropäische Sommerzeit),1629380934780,35.592216666666666,33,main
2686,1309,25,,conjunction,correct,right,1629383070313,no target,256,female,209,s,"Low German, German",30,images/main/conjunction/30/no_target/C_30_NT_1.jpg,Thu Aug 19 2021 15:48:54 GMT+0200 (Mitteleuropäische Sommerzeit),1629380934780,35.592216666666666,34,main
2686,947,25,,conjunction,correct,right,1629383070313,target,256,female,172,l,"Low German, German",5,images/main/conjunction/5/target/C_5_T_4.jpg,Thu Aug 19 2021 15:48:54 GMT+0200 (Mitteleuropäische Sommerzeit),1629380934780,35.592216666666666,35,main
2686,774,25,,conjunction,correct,right,1629383070313,target,256,female,175,l,"Low German, German",5,images/main/conjunction/5/target/C_5_T_7.jpg,Thu Aug 19 2021 15:48:54 GMT+0200 (Mitteleuropäische Sommerzeit),1629380934780,35.592216666666666,36,main
2686,1127,25,,conjunction,correct,right,1629383070313,target,256,female,170,l,"Low German, German",5,images/main/conjunction/5/target/C_5_T_2.jpg,Thu Aug 19 2021 15:48:54 GMT+0200 (Mitteleuropäische Sommerzeit),1629380934780,35.592216666666666,37,main
2686,1498,25,,conjunction,correct,right,1629383070313,no target,256,female,193,s,"Low German, German",15,images/main/conjunction/15/no_target/C_15_NT_1.jpg,Thu Aug 19 2021 15:48:54 GMT+0200 (Mitteleuropäische Sommerzeit),1629380934780,35.592216666666666,38,main
2686,852,25,,conjunction,correct,right,1629383070313,no target,256,female,181,s,"Low German, German",5,images/main/conjunction/5/no_target/C_5_NT_5.jpg,Thu Aug 19 2021 15:48:54 GMT+0200 (Mitteleuropäische Sommerzeit),1629380934780,35.592216666666666,39,main
2686,1260,25,,conjunction,correct,right,1629383070313,no target,256,female,197,s,"Low German, German",15,images/main/conjunction/15/no_target/C_15_NT_5.jpg,Thu Aug 19 2021 15:48:54 GMT+0200 (Mitteleuropäische Sommerzeit),1629380934780,35.592216666666666,40,main
2686,960,25,,conjunction,correct,right,1629383070313,no target,256,female,195,s,"Low German, German",15,images/main/conjunction/15/no_target/C_15_NT_3.jpg,Thu Aug 19 2021 15:48:54 GMT+0200 (Mitteleuropäische Sommerzeit),1629380934780,35.592216666666666,41,main
2686,642,25,,conjunction,correct,right,1629383070313,target,256,female,156,l,"Low German, German",1,images/main/conjunction/1/target/C_1_T_4.jpg,Thu Aug 19 2021 15:48:54 GMT+0200 (Mitteleuropäische Sommerzeit),1629380934780,35.592216666666666,42,main
2686,1059,25,,conjunction,correct,right,1629383070313,no target,256,female,179,s,"Low German, German",5,images/main/conjunction/5/no_target/C_5_NT_3.jpg,Thu Aug 19 2021 15:48:54 GMT+0200 (Mitteleuropäische Sommerzeit),1629380934780,35.592216666666666,43,main
2686,1567,25,,conjunction,correct,right,1629383070313,target,256,female,206,l,"Low German, German",30,images/main/conjunction/30/target/C_30_T_6.jpg,Thu Aug 19 2021 15:48:54 GMT+0200 (Mitteleuropäische Sommerzeit),1629380934780,35.592216666666666,44,main
2686,974,25,,conjunction,correct,right,1629383070313,no target,256,female,165,s,"Low German, German",1,images/main/conjunction/1/no_target/C_1_NT_5.jpg,Thu Aug 19 2021 15:48:54 GMT+0200 (Mitteleuropäische Sommerzeit),1629380934780,35.592216666666666,45,main
2686,1904,25,,conjunction,correct,right,1629383070313,no target,256,female,210,s,"Low German, German",30,images/main/conjunction/30/no_target/C_30_NT_2.jpg,Thu Aug 19 2021 15:48:54 GMT+0200 (Mitteleuropäische Sommerzeit),1629380934780,35.592216666666666,46,main
2686,633,25,,conjunction,correct,right,1629383070313,target,256,female,160,l,"Low German, German",1,images/main/conjunction/1/target/C_1_T_8.jpg,Thu Aug 19 2021 15:48:54 GMT+0200 (Mitteleuropäische Sommerzeit),1629380934780,35.592216666666666,47,main
2686,859,25,,conjunction,incorrect,right,1629383070313,target,256,female,185,s,"Low German, German",15,images/main/conjunction/15/target/C_15_T_1.jpg,Thu Aug 19 2021 15:48:54 GMT+0200 (Mitteleuropäische Sommerzeit),1629380934780,35.592216666666666,48,main
2686,1070,25,,conjunction,correct,right,1629383070313,target,256,female,192,l,"Low German, German",15,images/main/conjunction/15/target/C_15_T_8.jpg,Thu Aug 19 2021 15:48:54 GMT+0200 (Mitteleuropäische Sommerzeit),1629380934780,35.592216666666666,49,main
2686,1236,25,,conjunction,correct,right,1629383070313,target,256,female,188,l,"Low German, German",15,images/main/conjunction/15/target/C_15_T_4.jpg,Thu Aug 19 2021 15:48:54 GMT+0200 (Mitteleuropäische Sommerzeit),1629380934780,35.592216666666666,50,main
2686,873,25,,conjunction,correct,right,1629383070313,target,256,female,207,l,"Low German, German",30,images/main/conjunction/30/target/C_30_T_7.jpg,Thu Aug 19 2021 15:48:54 GMT+0200 (Mitteleuropäische Sommerzeit),1629380934780,35.592216666666666,51,main
2686,882,25,,conjunction,correct,right,1629383070313,no target,256,female,180,s,"Low German, German",5,images/main/conjunction/5/no_target/C_5_NT_4.jpg,Thu Aug 19 2021 15:48:54 GMT+0200 (Mitteleuropäische Sommerzeit),1629380934780,35.592216666666666,52,main
2686,877,25,,conjunction,correct,right,1629383070313,no target,256,female,161,s,"Low German, German",1,images/main/conjunction/1/no_target/C_1_NT_1.jpg,Thu Aug 19 2021 15:48:54 GMT+0200 (Mitteleuropäische Sommerzeit),1629380934780,35.592216666666666,53,main
2686,1347,25,,conjunction,correct,right,1629383070313,no target,256,female,168,s,"Low German, German",1,images/main/conjunction/1/no_target/C_1_NT_8.jpg,Thu Aug 19 2021 15:48:54 GMT+0200 (Mitteleuropäische Sommerzeit),1629380934780,35.592216666666666,54,main
2686,2402,25,,conjunction,correct,right,1629383070313,no target,256,female,216,s,"Low German, German",30,images/main/conjunction/30/no_target/C_30_NT_8.jpg,Thu Aug 19 2021 15:48:54 GMT+0200 (Mitteleuropäische Sommerzeit),1629380934780,35.592216666666666,55,main
2686,1089,25,,conjunction,correct,right,1629383070313,no target,256,female,162,s,"Low German, German",1,images/main/conjunction/1/no_target/C_1_NT_2.jpg,Thu Aug 19 2021 15:48:54 GMT+0200 (Mitteleuropäische Sommerzeit),1629380934780,35.592216666666666,56,main
2686,1263,25,,conjunction,correct,right,1629383070313,no target,256,female,184,s,"Low German, German",5,images/main/conjunction/5/no_target/C_5_NT_8.jpg,Thu Aug 19 2021 15:48:54 GMT+0200 (Mitteleuropäische Sommerzeit),1629380934780,35.592216666666666,57,main
2686,832,25,,conjunction,correct,right,1629383070313,target,256,female,176,l,"Low German, German",5,images/main/conjunction/5/target/C_5_T_8.jpg,Thu Aug 19 2021 15:48:54 GMT+0200 (Mitteleuropäische Sommerzeit),1629380934780,35.592216666666666,58,main
2686,930,25,,conjunction,correct,right,1629383070313,target,256,female,157,l,"Low German, German",1,images/main/conjunction/1/target/C_1_T_5.jpg,Thu Aug 19 2021 15:48:54 GMT+0200 (Mitteleuropäische Sommerzeit),1629380934780,35.592216666666666,59,main
2686,1732,25,,conjunction,correct,right,1629383070313,no target,256,female,213,s,"Low German, German",30,images/main/conjunction/30/no_target/C_30_NT_5.jpg,Thu Aug 19 2021 15:48:54 GMT+0200 (Mitteleuropäische Sommerzeit),1629380934780,35.592216666666666,60,main
2686,846,25,,conjunction,correct,right,1629383070313,target,256,female,169,l,"Low German, German",5,images/main/conjunction/5/target/C_5_T_1.jpg,Thu Aug 19 2021 15:48:54 GMT+0200 (Mitteleuropäische Sommerzeit),1629380934780,35.592216666666666,61,main
2686,709,25,,conjunction,correct,right,1629383070313,target,256,female,159,l,"Low German, German",1,images/main/conjunction/1/target/C_1_T_7.jpg,Thu Aug 19 2021 15:48:54 GMT+0200 (Mitteleuropäische Sommerzeit),1629380934780,35.592216666666666,62,main
2686,687,25,,conjunction,correct,right,1629383070313,target,256,female,155,l,"Low German, German",1,images/main/conjunction/1/target/C_1_T_3.jpg,Thu Aug 19 2021 15:48:54 GMT+0200 (Mitteleuropäische Sommerzeit),1629380934780,35.592216666666666,63,main
2686,1601,25,,conjunction,correct,right,1629383070313,no target,256,female,198,s,"Low German, German",15,images/main/conjunction/15/no_target/C_15_NT_6.jpg,Thu Aug 19 2021 15:48:54 GMT+0200 (Mitteleuropäische Sommerzeit),1629380934780,35.592216666666666,64,main
2686,868,25,,color,correct,right,1629383070313,target,256,female,74,l,"Low German, German",30,images/main/feature/30/target/F_C_30_T_2_Tblue.jpg,Thu Aug 19 2021 15:48:54 GMT+0200 (Mitteleuropäische Sommerzeit),1629380934780,35.592216666666666,1,main
2686,841,25,,color,correct,right,1629383070313,target,256,female,57,l,"Low German, German",15,images/main/feature/15/target/F_C_15_T_1_Tblue.jpg,Thu Aug 19 2021 15:48:54 GMT+0200 (Mitteleuropäische Sommerzeit),1629380934780,35.592216666666666,2,main
2686,942,25,,color,correct,right,1629383070313,no target,256,female,67,s,"Low German, German",15,images/main/feature/15/no_target/F_C_15_NT_3.jpg,Thu Aug 19 2021 15:48:54 GMT+0200 (Mitteleuropäische Sommerzeit),1629380934780,35.592216666666666,3,main
2686,1060,25,,shape,correct,right,1629383070313,target,256,female,27,l,"Low German, German",1,images/main/feature/1/target/F_C_1_T_3_Sbrown.jpg,Thu Aug 19 2021 15:48:54 GMT+0200 (Mitteleuropäische Sommerzeit),1629380934780,35.592216666666666,4,main
2686,802,25,,color,correct,right,1629383070313,target,256,female,77,l,"Low German, German",30,images/main/feature/30/target/F_C_30_T_5_Xblue.jpg,Thu Aug 19 2021 15:48:54 GMT+0200 (Mitteleuropäische Sommerzeit),1629380934780,35.592216666666666,5,main
2686,756,25,,color,correct,right,1629383070313,target,256,female,58,l,"Low German, German",15,images/main/feature/15/target/F_C_15_T_2_Tblue.jpg,Thu Aug 19 2021 15:48:54 GMT+0200 (Mitteleuropäische Sommerzeit),1629380934780,35.592216666666666,6,main
2686,566,25,,color,correct,right,1629383070313,target,256,female,29,l,"Low German, German",1,images/main/feature/1/target/F_C_1_T_5_XBlue.jpg,Thu Aug 19 2021 15:48:54 GMT+0200 (Mitteleuropäische Sommerzeit),1629380934780,35.592216666666666,7,main
2686,581,25,,color,correct,right,1629383070313,target,256,female,41,l,"Low German, German",5,images/main/feature/5/target/F_C_5_T_1_Tblue.jpg,Thu Aug 19 2021 15:48:54 GMT+0200 (Mitteleuropäische Sommerzeit),1629380934780,35.592216666666666,8,main
2686,1091,25,,shape,correct,right,1629383070313,target,256,female,76,l,"Low German, German",30,images/main/feature/30/target/F_C_30_T_4_Sbrown.jpg,Thu Aug 19 2021 15:48:54 GMT+0200 (Mitteleuropäische Sommerzeit),1629380934780,35.592216666666666,9,main
2686,920,25,,shape,correct,right,1629383070313,target,256,female,64,l,"Low German, German",15,images/main/feature/15/target/F_C_15_T_8_Sgreen.jpg,Thu Aug 19 2021 15:48:54 GMT+0200 (Mitteleuropäische Sommerzeit),1629380934780,35.592216666666666,10,main
2686,682,25,,color,correct,right,1629383070313,target,256,female,42,l,"Low German, German",5,images/main/feature/5/target/F_C_5_T_2_Tblue.jpg,Thu Aug 19 2021 15:48:54 GMT+0200 (Mitteleuropäische Sommerzeit),1629380934780,35.592216666666666,11,main
2686,1884,25,,shape,correct,right,1629383070313,no target,256,female,85,s,"Low German, German",30,images/main/feature/30/no_target/F_C_30_NT_5.jpg,Thu Aug 19 2021 15:48:54 GMT+0200 (Mitteleuropäische Sommerzeit),1629380934780,35.592216666666666,12,main
2686,727,25,,shape,correct,right,1629383070313,no target,256,female,40,s,"Low German, German",1,images/main/feature/1/no_target/F_C_1_NT_8.jpg,Thu Aug 19 2021 15:48:54 GMT+0200 (Mitteleuropäische Sommerzeit),1629380934780,35.592216666666666,13,main
2686,902,25,,shape,correct,right,1629383070313,no target,256,female,55,s,"Low German, German",5,images/main/feature/5/no_target/F_C_5_NT_7.jpg,Thu Aug 19 2021 15:48:54 GMT+0200 (Mitteleuropäische Sommerzeit),1629380934780,35.592216666666666,14,main
2686,808,25,,color,correct,right,1629383070313,no target,256,female,52,s,"Low German, German",5,images/main/feature/5/no_target/F_C_5_NT_4.jpg,Thu Aug 19 2021 15:48:54 GMT+0200 (Mitteleuropäische Sommerzeit),1629380934780,35.592216666666666,15,main
2686,1621,25,,color,correct,right,1629383070313,no target,256,female,81,s,"Low German, German",30,images/main/feature/30/no_target/F_C_30_NT_1.jpg,Thu Aug 19 2021 15:48:54 GMT+0200 (Mitteleuropäische Sommerzeit),1629380934780,35.592216666666666,16,main
2686,562,25,,shape,incorrect,right,1629383070313,target,256,female,32,s,"Low German, German",1,images/main/feature/1/target/F_C_1_T_8_Sgreen.jpg,Thu Aug 19 2021 15:48:54 GMT+0200 (Mitteleuropäische Sommerzeit),1629380934780,35.592216666666666,17,main
2686,956,25,,color,correct,right,1629383070313,no target,256,female,35,s,"Low German, German",1,images/main/feature/1/no_target/F_C_1_NT_3.jpg,Thu Aug 19 2021 15:48:54 GMT+0200 (Mitteleuropäische Sommerzeit),1629380934780,35.592216666666666,18,main
2686,753,25,,shape,correct,right,1629383070313,target,256,female,75,l,"Low German, German",30,images/main/feature/30/target/F_C_30_T_3_Sbrown.jpg,Thu Aug 19 2021 15:48:54 GMT+0200 (Mitteleuropäische Sommerzeit),1629380934780,35.592216666666666,19,main
2686,1093,25,,shape,correct,right,1629383070313,target,256,female,63,l,"Low German, German",15,images/main/feature/15/target/F_C_15_T_7_Sgreen.jpg,Thu Aug 19 2021 15:48:54 GMT+0200 (Mitteleuropäische Sommerzeit),1629380934780,35.592216666666666,20,main
2686,661,25,,shape,correct,right,1629383070313,no target,256,female,38,s,"Low German, German",1,images/main/feature/1/no_target/F_C_1_NT_6.jpg,Thu Aug 19 2021 15:48:54 GMT+0200 (Mitteleuropäische Sommerzeit),1629380934780,35.592216666666666,21,main
2686,1025,25,,color,correct,right,1629383070313,no target,256,female,68,s,"Low German, German",15,images/main/feature/15/no_target/F_C_15_NT_4.jpg,Thu Aug 19 2021 15:48:54 GMT+0200 (Mitteleuropäische Sommerzeit),1629380934780,35.592216666666666,22,main
2686,963,25,,shape,correct,right,1629383070313,no target,256,female,86,s,"Low German, German",30,images/main/feature/30/no_target/F_C_30_NT_6.jpg,Thu Aug 19 2021 15:48:54 GMT+0200 (Mitteleuropäische Sommerzeit),1629380934780,35.592216666666666,23,main
2686,1602,25,,color,correct,right,1629383070313,no target,256,female,84,s,"Low German, German",30,images/main/feature/30/no_target/F_C_30_NT_4.jpg,Thu Aug 19 2021 15:48:54 GMT+0200 (Mitteleuropäische Sommerzeit),1629380934780,35.592216666666666,24,main
2686,971,25,,shape,correct,right,1629383070313,no target,256,female,71,s,"Low German, German",15,images/main/feature/15/no_target/F_C_15_NT_7.jpg,Thu Aug 19 2021 15:48:54 GMT+0200 (Mitteleuropäische Sommerzeit),1629380934780,35.592216666666666,25,main
2686,705,25,,color,correct,right,1629383070313,target,256,female,62,l,"Low German, German",15,images/main/feature/15/target/F_C_15_T_6_Xblue.jpg,Thu Aug 19 2021 15:48:54 GMT+0200 (Mitteleuropäische Sommerzeit),1629380934780,35.592216666666666,26,main
2686,947,25,,shape,correct,right,1629383070313,no target,256,female,88,s,"Low German, German",30,images/main/feature/30/no_target/F_C_30_NT_8.jpg,Thu Aug 19 2021 15:48:54 GMT+0200 (Mitteleuropäische Sommerzeit),1629380934780,35.592216666666666,27,main
2686,792,25,,color,correct,right,1629383070313,no target,256,female,51,s,"Low German, German",5,images/main/feature/5/no_target/F_C_5_NT_3.jpg,Thu Aug 19 2021 15:48:54 GMT+0200 (Mitteleuropäische Sommerzeit),1629380934780,35.592216666666666,28,main
2686,646,25,,shape,correct,right,1629383070313,target,256,female,28,l,"Low German, German",1,images/main/feature/1/target/F_C_1_T_4_Sbrown.jpg,Thu Aug 19 2021 15:48:54 GMT+0200 (Mitteleuropäische Sommerzeit),1629380934780,35.592216666666666,29,main
2686,769,25,,color,correct,right,1629383070313,no target,256,female,34,s,"Low German, German",1,images/main/feature/1/no_target/F_C_1_NT_2.jpg,Thu Aug 19 2021 15:48:54 GMT+0200 (Mitteleuropäische Sommerzeit),1629380934780,35.592216666666666,30,main
2686,782,25,,color,correct,right,1629383070313,target,256,female,25,l,"Low German, German",1,images/main/feature/1/target/F_C_1_T_1_Tblue.jpg,Thu Aug 19 2021 15:48:54 GMT+0200 (Mitteleuropäische Sommerzeit),1629380934780,35.592216666666666,31,main
2686,1030,25,,shape,incorrect,right,1629383070313,target,256,female,79,s,"Low German, German",30,images/main/feature/30/target/F_C_30_T_7_Sgreen.jpg,Thu Aug 19 2021 15:48:54 GMT+0200 (Mitteleuropäische Sommerzeit),1629380934780,35.592216666666666,32,main
2686,1005,25,,shape,correct,right,1629383070313,no target,256,female,54,s,"Low German, German",5,images/main/feature/5/no_target/F_C_5_NT_6.jpg,Thu Aug 19 2021 15:48:54 GMT+0200 (Mitteleuropäische Sommerzeit),1629380934780,35.592216666666666,33,main
2686,739,25,,color,correct,right,1629383070313,target,256,female,73,l,"Low German, German",30,images/main/feature/30/target/F_C_30_T_1_Tblue.jpg,Thu Aug 19 2021 15:48:54 GMT+0200 (Mitteleuropäische Sommerzeit),1629380934780,35.592216666666666,34,main
2686,752,25,,shape,correct,right,1629383070313,target,256,female,31,l,"Low German, German",1,images/main/feature/1/target/F_C_1_T_7_Sgreen.jpg,Thu Aug 19 2021 15:48:54 GMT+0200 (Mitteleuropäische Sommerzeit),1629380934780,35.592216666666666,35,main
2686,925,25,,shape,correct,right,1629383070313,no target,256,female,69,s,"Low German, German",15,images/main/feature/15/no_target/F_C_15_NT_5.jpg,Thu Aug 19 2021 15:48:54 GMT+0200 (Mitteleuropäische Sommerzeit),1629380934780,35.592216666666666,36,main
2686,1414,25,,shape,correct,right,1629383070313,no target,256,female,70,s,"Low German, German",15,images/main/feature/15/no_target/F_C_15_NT_6.jpg,Thu Aug 19 2021 15:48:54 GMT+0200 (Mitteleuropäische Sommerzeit),1629380934780,35.592216666666666,37,main
2686,833,25,,shape,correct,right,1629383070313,no target,256,female,37,s,"Low German, German",1,images/main/feature/1/no_target/F_C_1_NT_5.jpg,Thu Aug 19 2021 15:48:54 GMT+0200 (Mitteleuropäische Sommerzeit),1629380934780,35.592216666666666,38,main
2686,681,25,,color,correct,right,1629383070313,target,256,female,78,l,"Low German, German",30,images/main/feature/30/target/F_C_30_T_6_Xblue.jpg,Thu Aug 19 2021 15:48:54 GMT+0200 (Mitteleuropäische Sommerzeit),1629380934780,35.592216666666666,39,main
2686,615,25,,color,correct,right,1629383070313,target,256,female,30,l,"Low German, German",1,images/main/feature/1/target/F_C_1_T_6_XBlue.jpg,Thu Aug 19 2021 15:48:54 GMT+0200 (Mitteleuropäische Sommerzeit),1629380934780,35.592216666666666,40,main
2686,752,25,,color,correct,right,1629383070313,no target,256,female,50,s,"Low German, German",5,images/main/feature/5/no_target/F_C_5_NT_2.jpg,Thu Aug 19 2021 15:48:54 GMT+0200 (Mitteleuropäische Sommerzeit),1629380934780,35.592216666666666,41,main
2686,950,25,,shape,correct,right,1629383070313,target,256,female,48,l,"Low German, German",5,images/main/feature/5/target/F_C_5_T_8_Sgreen.jpg,Thu Aug 19 2021 15:48:54 GMT+0200 (Mitteleuropäische Sommerzeit),1629380934780,35.592216666666666,42,main
2686,971,25,,color,correct,right,1629383070313,no target,256,female,65,s,"Low German, German",15,images/main/feature/15/no_target/F_C_15_NT_1.jpg,Thu Aug 19 2021 15:48:54 GMT+0200 (Mitteleuropäische Sommerzeit),1629380934780,35.592216666666666,43,main
2686,907,25,,color,correct,right,1629383070313,no target,256,female,82,s,"Low German, German",30,images/main/feature/30/no_target/F_C_30_NT_2.jpg,Thu Aug 19 2021 15:48:54 GMT+0200 (Mitteleuropäische Sommerzeit),1629380934780,35.592216666666666,44,main
2686,1087,25,,shape,correct,right,1629383070313,target,256,female,60,l,"Low German, German",15,images/main/feature/15/target/F_C_15_T_4_Sbrown.jpg,Thu Aug 19 2021 15:48:54 GMT+0200 (Mitteleuropäische Sommerzeit),1629380934780,35.592216666666666,45,main
2686,752,25,,color,correct,right,1629383070313,target,256,female,45,l,"Low German, German",5,images/main/feature/5/target/F_C_5_T_5_Xblue.jpg,Thu Aug 19 2021 15:48:54 GMT+0200 (Mitteleuropäische Sommerzeit),1629380934780,35.592216666666666,46,main
2686,629,25,,color,correct,right,1629383070313,target,256,female,26,l,"Low German, German",1,images/main/feature/1/target/F_C_1_T_2_Tblue.jpg,Thu Aug 19 2021 15:48:54 GMT+0200 (Mitteleuropäische Sommerzeit),1629380934780,35.592216666666666,47,main
2686,1245,25,,shape,correct,right,1629383070313,target,256,female,80,l,"Low German, German",30,images/main/feature/30/target/F_C_30_T_8_Sgreen.jpg,Thu Aug 19 2021 15:48:54 GMT+0200 (Mitteleuropäische Sommerzeit),1629380934780,35.592216666666666,48,main
2686,1570,25,,color,correct,right,1629383070313,no target,256,female,66,s,"Low German, German",15,images/main/feature/15/no_target/F_C_15_NT_2.jpg,Thu Aug 19 2021 15:48:54 GMT+0200 (Mitteleuropäische Sommerzeit),1629380934780,35.592216666666666,49,main
2686,616,25,,shape,correct,right,1629383070313,target,256,female,47,l,"Low German, German",5,images/main/feature/5/target/F_C_5_T_7_Sgreen.jpg,Thu Aug 19 2021 15:48:54 GMT+0200 (Mitteleuropäische Sommerzeit),1629380934780,35.592216666666666,50,main
2686,1176,25,,shape,correct,right,1629383070313,no target,256,female,72,s,"Low German, German",15,images/main/feature/15/no_target/F_C_15_NT_8.jpg,Thu Aug 19 2021 15:48:54 GMT+0200 (Mitteleuropäische Sommerzeit),1629380934780,35.592216666666666,51,main
2686,714,25,,shape,correct,right,1629383070313,target,256,female,44,l,"Low German, German",5,images/main/feature/5/target/F_C_5_T_4_Sbrown.jpg,Thu Aug 19 2021 15:48:54 GMT+0200 (Mitteleuropäische Sommerzeit),1629380934780,35.592216666666666,52,main
2686,926,25,,shape,correct,right,1629383070313,no target,256,female,53,s,"Low German, German",5,images/main/feature/5/no_target/F_C_5_NT_5.jpg,Thu Aug 19 2021 15:48:54 GMT+0200 (Mitteleuropäische Sommerzeit),1629380934780,35.592216666666666,53,main
2686,777,25,,color,correct,right,1629383070313,target,256,female,61,l,"Low German, German",15,images/main/feature/15/target/F_C_15_T_5_Xblue.jpg,Thu Aug 19 2021 15:48:54 GMT+0200 (Mitteleuropäische Sommerzeit),1629380934780,35.592216666666666,54,main
2686,843,25,,color,correct,right,1629383070313,target,256,female,46,l,"Low German, German",5,images/main/feature/5/target/F_C_5_T_6_Xblue.jpg,Thu Aug 19 2021 15:48:54 GMT+0200 (Mitteleuropäische Sommerzeit),1629380934780,35.592216666666666,55,main
2686,1938,25,,shape,correct,right,1629383070313,no target,256,female,87,s,"Low German, German",30,images/main/feature/30/no_target/F_C_30_NT_7.jpg,Thu Aug 19 2021 15:48:54 GMT+0200 (Mitteleuropäische Sommerzeit),1629380934780,35.592216666666666,56,main
2686,708,25,,shape,correct,right,1629383070313,target,256,female,43,l,"Low German, German",5,images/main/feature/5/target/F_C_5_T_3_Sbrown.jpg,Thu Aug 19 2021 15:48:54 GMT+0200 (Mitteleuropäische Sommerzeit),1629380934780,35.592216666666666,57,main
2686,753,25,,color,correct,right,1629383070313,no target,256,female,33,s,"Low German, German",1,images/main/feature/1/no_target/F_C_1_NT_1.jpg,Thu Aug 19 2021 15:48:54 GMT+0200 (Mitteleuropäische Sommerzeit),1629380934780,35.592216666666666,58,main
2686,937,25,,shape,correct,right,1629383070313,target,256,female,59,l,"Low German, German",15,images/main/feature/15/target/F_C_15_T_3_Sbrown.jpg,Thu Aug 19 2021 15:48:54 GMT+0200 (Mitteleuropäische Sommerzeit),1629380934780,35.592216666666666,59,main
2686,629,25,,color,correct,right,1629383070313,no target,256,female,36,s,"Low German, German",1,images/main/feature/1/no_target/F_C_1_NT_4.jpg,Thu Aug 19 2021 15:48:54 GMT+0200 (Mitteleuropäische Sommerzeit),1629380934780,35.592216666666666,60,main
2686,870,25,,color,correct,right,1629383070313,no target,256,female,49,s,"Low German, German",5,images/main/feature/5/no_target/F_C_5_NT_1.jpg,Thu Aug 19 2021 15:48:54 GMT+0200 (Mitteleuropäische Sommerzeit),1629380934780,35.592216666666666,61,main
2686,1450,25,,color,correct,right,1629383070313,no target,256,female,83,s,"Low German, German",30,images/main/feature/30/no_target/F_C_30_NT_3.jpg,Thu Aug 19 2021 15:48:54 GMT+0200 (Mitteleuropäische Sommerzeit),1629380934780,35.592216666666666,62,main
2686,797,25,,shape,correct,right,1629383070313,no target,256,female,56,s,"Low German, German",5,images/main/feature/5/no_target/F_C_5_NT_8.jpg,Thu Aug 19 2021 15:48:54 GMT+0200 (Mitteleuropäische Sommerzeit),1629380934780,35.592216666666666,63,main
2686,676,25,,shape,correct,right,1629383070313,no target,256,female,39,s,"Low German, German",1,images/main/feature/1/no_target/F_C_1_NT_7.jpg,Thu Aug 19 2021 15:48:54 GMT+0200 (Mitteleuropäische Sommerzeit),1629380934780,35.592216666666666,64,main
2686,854,25,,conjunction,correct,right,1629383070313,no target,256,female,162,s,"Low German, German",1,images/main/conjunction/1/no_target/C_1_NT_2.jpg,Thu Aug 19 2021 15:48:54 GMT+0200 (Mitteleuropäische Sommerzeit),1629380934780,35.592216666666666,1,main
2686,1662,25,,conjunction,correct,right,1629383070313,no target,256,female,215,s,"Low German, German",30,images/main/conjunction/30/no_target/C_30_NT_7.jpg,Thu Aug 19 2021 15:48:54 GMT+0200 (Mitteleuropäische Sommerzeit),1629380934780,35.592216666666666,2,main
2686,885,25,,conjunction,incorrect,right,1629383070313,target,256,female,203,s,"Low German, German",30,images/main/conjunction/30/target/C_30_T_3.jpg,Thu Aug 19 2021 15:48:54 GMT+0200 (Mitteleuropäische Sommerzeit),1629380934780,35.592216666666666,3,main
2686,761,25,,conjunction,correct,right,1629383070313,target,256,female,153,l,"Low German, German",1,images/main/conjunction/1/target/C_1_T_1.jpg,Thu Aug 19 2021 15:48:54 GMT+0200 (Mitteleuropäische Sommerzeit),1629380934780,35.592216666666666,4,main
2686,844,25,,conjunction,correct,right,1629383070313,no target,256,female,177,s,"Low German, German",5,images/main/conjunction/5/no_target/C_5_NT_1.jpg,Thu Aug 19 2021 15:48:54 GMT+0200 (Mitteleuropäische Sommerzeit),1629380934780,35.592216666666666,5,main
2686,1005,25,,conjunction,correct,right,1629383070313,no target,256,female,183,s,"Low German, German",5,images/main/conjunction/5/no_target/C_5_NT_7.jpg,Thu Aug 19 2021 15:48:54 GMT+0200 (Mitteleuropäische Sommerzeit),1629380934780,35.592216666666666,6,main
2686,610,25,,conjunction,correct,right,1629383070313,target,256,female,157,l,"Low German, German",1,images/main/conjunction/1/target/C_1_T_5.jpg,Thu Aug 19 2021 15:48:54 GMT+0200 (Mitteleuropäische Sommerzeit),1629380934780,35.592216666666666,7,main
2686,720,25,,conjunction,correct,right,1629383070313,target,256,female,172,l,"Low German, German",5,images/main/conjunction/5/target/C_5_T_4.jpg,Thu Aug 19 2021 15:48:54 GMT+0200 (Mitteleuropäische Sommerzeit),1629380934780,35.592216666666666,8,main
2686,1183,25,,conjunction,correct,right,1629383070313,no target,256,female,195,s,"Low German, German",15,images/main/conjunction/15/no_target/C_15_NT_3.jpg,Thu Aug 19 2021 15:48:54 GMT+0200 (Mitteleuropäische Sommerzeit),1629380934780,35.592216666666666,9,main
2686,1048,25,,conjunction,correct,right,1629383070313,no target,256,female,180,s,"Low German, German",5,images/main/conjunction/5/no_target/C_5_NT_4.jpg,Thu Aug 19 2021 15:48:54 GMT+0200 (Mitteleuropäische Sommerzeit),1629380934780,35.592216666666666,10,main
2686,689,25,,conjunction,correct,right,1629383070313,target,256,female,171,l,"Low German, German",5,images/main/conjunction/5/target/C_5_T_3.jpg,Thu Aug 19 2021 15:48:54 GMT+0200 (Mitteleuropäische Sommerzeit),1629380934780,35.592216666666666,11,main
2686,730,25,,conjunction,correct,right,1629383070313,target,256,female,190,l,"Low German, German",15,images/main/conjunction/15/target/C_15_T_6.jpg,Thu Aug 19 2021 15:48:54 GMT+0200 (Mitteleuropäische Sommerzeit),1629380934780,35.592216666666666,12,main
2686,905,25,,conjunction,correct,right,1629383070313,no target,256,female,193,s,"Low German, German",15,images/main/conjunction/15/no_target/C_15_NT_1.jpg,Thu Aug 19 2021 15:48:54 GMT+0200 (Mitteleuropäische Sommerzeit),1629380934780,35.592216666666666,13,main
2686,789,25,,conjunction,correct,right,1629383070313,no target,256,female,167,s,"Low German, German",1,images/main/conjunction/1/no_target/C_1_NT_7.jpg,Thu Aug 19 2021 15:48:54 GMT+0200 (Mitteleuropäische Sommerzeit),1629380934780,35.592216666666666,14,main
2686,1210,25,,conjunction,correct,right,1629383070313,no target,256,female,199,s,"Low German, German",15,images/main/conjunction/15/no_target/C_15_NT_7.jpg,Thu Aug 19 2021 15:48:54 GMT+0200 (Mitteleuropäische Sommerzeit),1629380934780,35.592216666666666,15,main
2686,1200,25,,conjunction,correct,right,1629383070313,no target,256,female,200,s,"Low German, German",15,images/main/conjunction/15/no_target/C_15_NT_8.jpg,Thu Aug 19 2021 15:48:54 GMT+0200 (Mitteleuropäische Sommerzeit),1629380934780,35.592216666666666,16,main
2686,645,25,,conjunction,correct,right,1629383070313,target,256,female,175,l,"Low German, German",5,images/main/conjunction/5/target/C_5_T_7.jpg,Thu Aug 19 2021 15:48:54 GMT+0200 (Mitteleuropäische Sommerzeit),1629380934780,35.592216666666666,17,main
2686,731,25,,conjunction,correct,right,1629383070313,no target,256,female,179,s,"Low German, German",5,images/main/conjunction/5/no_target/C_5_NT_3.jpg,Thu Aug 19 2021 15:48:54 GMT+0200 (Mitteleuropäische Sommerzeit),1629380934780,35.592216666666666,18,main
2686,528,25,,conjunction,correct,right,1629383070313,target,256,female,159,l,"Low German, German",1,images/main/conjunction/1/target/C_1_T_7.jpg,Thu Aug 19 2021 15:48:54 GMT+0200 (Mitteleuropäische Sommerzeit),1629380934780,35.592216666666666,19,main
2686,1888,25,,conjunction,correct,right,1629383070313,target,256,female,208,l,"Low German, German",30,images/main/conjunction/30/target/C_30_T_8.jpg,Thu Aug 19 2021 15:48:54 GMT+0200 (Mitteleuropäische Sommerzeit),1629380934780,35.592216666666666,20,main
2686,808,25,,conjunction,correct,right,1629383070313,no target,256,female,178,s,"Low German, German",5,images/main/conjunction/5/no_target/C_5_NT_2.jpg,Thu Aug 19 2021 15:48:54 GMT+0200 (Mitteleuropäische Sommerzeit),1629380934780,35.592216666666666,21,main
2686,1080,25,,conjunction,correct,right,1629383070313,no target,256,female,198,s,"Low German, German",15,images/main/conjunction/15/no_target/C_15_NT_6.jpg,Thu Aug 19 2021 15:48:54 GMT+0200 (Mitteleuropäische Sommerzeit),1629380934780,35.592216666666666,22,main
2686,713,25,,conjunction,correct,right,1629383070313,no target,256,female,182,s,"Low German, German",5,images/main/conjunction/5/no_target/C_5_NT_6.jpg,Thu Aug 19 2021 15:48:54 GMT+0200 (Mitteleuropäische Sommerzeit),1629380934780,35.592216666666666,23,main
2686,1328,25,,conjunction,correct,right,1629383070313,no target,256,female,197,s,"Low German, German",15,images/main/conjunction/15/no_target/C_15_NT_5.jpg,Thu Aug 19 2021 15:48:54 GMT+0200 (Mitteleuropäische Sommerzeit),1629380934780,35.592216666666666,24,main
2686,724,25,,conjunction,correct,right,1629383070313,no target,256,female,163,s,"Low German, German",1,images/main/conjunction/1/no_target/C_1_NT_3.jpg,Thu Aug 19 2021 15:48:54 GMT+0200 (Mitteleuropäische Sommerzeit),1629380934780,35.592216666666666,25,main
2686,874,25,,conjunction,correct,right,1629383070313,target,256,female,173,l,"Low German, German",5,images/main/conjunction/5/target/C_5_T_5.jpg,Thu Aug 19 2021 15:48:54 GMT+0200 (Mitteleuropäische Sommerzeit),1629380934780,35.592216666666666,26,main
2686,1386,25,,conjunction,correct,right,1629383070313,no target,256,female,216,s,"Low German, German",30,images/main/conjunction/30/no_target/C_30_NT_8.jpg,Thu Aug 19 2021 15:48:54 GMT+0200 (Mitteleuropäische Sommerzeit),1629380934780,35.592216666666666,27,main
2686,568,25,,conjunction,correct,right,1629383070313,target,256,female,156,l,"Low German, German",1,images/main/conjunction/1/target/C_1_T_4.jpg,Thu Aug 19 2021 15:48:54 GMT+0200 (Mitteleuropäische Sommerzeit),1629380934780,35.592216666666666,28,main
2686,653,25,,conjunction,correct,right,1629383070313,target,256,female,158,l,"Low German, German",1,images/main/conjunction/1/target/C_1_T_6.jpg,Thu Aug 19 2021 15:48:54 GMT+0200 (Mitteleuropäische Sommerzeit),1629380934780,35.592216666666666,29,main
2686,1114,25,,conjunction,correct,right,1629383070313,target,256,female,188,l,"Low German, German",15,images/main/conjunction/15/target/C_15_T_4.jpg,Thu Aug 19 2021 15:48:54 GMT+0200 (Mitteleuropäische Sommerzeit),1629380934780,35.592216666666666,30,main
2686,1416,25,,conjunction,correct,right,1629383070313,no target,256,female,209,s,"Low German, German",30,images/main/conjunction/30/no_target/C_30_NT_1.jpg,Thu Aug 19 2021 15:48:54 GMT+0200 (Mitteleuropäische Sommerzeit),1629380934780,35.592216666666666,31,main
2686,1131,25,,conjunction,correct,right,1629383070313,target,256,female,205,l,"Low German, German",30,images/main/conjunction/30/target/C_30_T_5.jpg,Thu Aug 19 2021 15:48:54 GMT+0200 (Mitteleuropäische Sommerzeit),1629380934780,35.592216666666666,32,main
2686,1302,25,,conjunction,incorrect,right,1629383070313,target,256,female,202,s,"Low German, German",30,images/main/conjunction/30/target/C_30_T_2.jpg,Thu Aug 19 2021 15:48:54 GMT+0200 (Mitteleuropäische Sommerzeit),1629380934780,35.592216666666666,33,main
2686,768,25,,conjunction,correct,right,1629383070313,target,256,female,176,l,"Low German, German",5,images/main/conjunction/5/target/C_5_T_8.jpg,Thu Aug 19 2021 15:48:54 GMT+0200 (Mitteleuropäische Sommerzeit),1629380934780,35.592216666666666,34,main
2686,655,25,,conjunction,correct,right,1629383070313,target,256,female,155,l,"Low German, German",1,images/main/conjunction/1/target/C_1_T_3.jpg,Thu Aug 19 2021 15:48:54 GMT+0200 (Mitteleuropäische Sommerzeit),1629380934780,35.592216666666666,35,main
2686,774,25,,conjunction,correct,right,1629383070313,target,256,female,169,l,"Low German, German",5,images/main/conjunction/5/target/C_5_T_1.jpg,Thu Aug 19 2021 15:48:54 GMT+0200 (Mitteleuropäische Sommerzeit),1629380934780,35.592216666666666,36,main
2686,742,25,,conjunction,correct,right,1629383070313,target,256,female,187,l,"Low German, German",15,images/main/conjunction/15/target/C_15_T_3.jpg,Thu Aug 19 2021 15:48:54 GMT+0200 (Mitteleuropäische Sommerzeit),1629380934780,35.592216666666666,37,main
2686,2268,25,,conjunction,correct,right,1629383070313,no target,256,female,210,s,"Low German, German",30,images/main/conjunction/30/no_target/C_30_NT_2.jpg,Thu Aug 19 2021 15:48:54 GMT+0200 (Mitteleuropäische Sommerzeit),1629380934780,35.592216666666666,38,main
2686,804,25,,conjunction,correct,right,1629383070313,no target,256,female,184,s,"Low German, German",5,images/main/conjunction/5/no_target/C_5_NT_8.jpg,Thu Aug 19 2021 15:48:54 GMT+0200 (Mitteleuropäische Sommerzeit),1629380934780,35.592216666666666,39,main
2686,620,25,,conjunction,correct,right,1629383070313,target,256,female,174,l,"Low German, German",5,images/main/conjunction/5/target/C_5_T_6.jpg,Thu Aug 19 2021 15:48:54 GMT+0200 (Mitteleuropäische Sommerzeit),1629380934780,35.592216666666666,40,main
2686,829,25,,conjunction,correct,right,1629383070313,no target,256,female,161,s,"Low German, German",1,images/main/conjunction/1/no_target/C_1_NT_1.jpg,Thu Aug 19 2021 15:48:54 GMT+0200 (Mitteleuropäische Sommerzeit),1629380934780,35.592216666666666,41,main
2686,1009,25,,conjunction,correct,right,1629383070313,no target,256,female,196,s,"Low German, German",15,images/main/conjunction/15/no_target/C_15_NT_4.jpg,Thu Aug 19 2021 15:48:54 GMT+0200 (Mitteleuropäische Sommerzeit),1629380934780,35.592216666666666,42,main
2686,666,25,,conjunction,correct,right,1629383070313,no target,256,female,164,s,"Low German, German",1,images/main/conjunction/1/no_target/C_1_NT_4.jpg,Thu Aug 19 2021 15:48:54 GMT+0200 (Mitteleuropäische Sommerzeit),1629380934780,35.592216666666666,43,main
2686,1563,25,,conjunction,correct,right,1629383070313,no target,256,female,212,s,"Low German, German",30,images/main/conjunction/30/no_target/C_30_NT_4.jpg,Thu Aug 19 2021 15:48:54 GMT+0200 (Mitteleuropäische Sommerzeit),1629380934780,35.592216666666666,44,main
2686,837,25,,conjunction,correct,right,1629383070313,target,256,female,201,l,"Low German, German",30,images/main/conjunction/30/target/C_30_T_1.jpg,Thu Aug 19 2021 15:48:54 GMT+0200 (Mitteleuropäische Sommerzeit),1629380934780,35.592216666666666,45,main
2686,1082,25,,conjunction,correct,right,1629383070313,target,256,female,204,l,"Low German, German",30,images/main/conjunction/30/target/C_30_T_4.jpg,Thu Aug 19 2021 15:48:54 GMT+0200 (Mitteleuropäische Sommerzeit),1629380934780,35.592216666666666,46,main
2686,617,25,,conjunction,correct,right,1629383070313,no target,256,female,168,s,"Low German, German",1,images/main/conjunction/1/no_target/C_1_NT_8.jpg,Thu Aug 19 2021 15:48:54 GMT+0200 (Mitteleuropäische Sommerzeit),1629380934780,35.592216666666666,47,main
2686,780,25,,conjunction,correct,right,1629383070313,target,256,female,170,l,"Low German, German",5,images/main/conjunction/5/target/C_5_T_2.jpg,Thu Aug 19 2021 15:48:54 GMT+0200 (Mitteleuropäische Sommerzeit),1629380934780,35.592216666666666,48,main
2686,1288,25,,conjunction,correct,right,1629383070313,no target,256,female,214,s,"Low German, German",30,images/main/conjunction/30/no_target/C_30_NT_6.jpg,Thu Aug 19 2021 15:48:54 GMT+0200 (Mitteleuropäische Sommerzeit),1629380934780,35.592216666666666,49,main
2686,846,25,,conjunction,correct,right,1629383070313,no target,256,female,181,s,"Low German, German",5,images/main/conjunction/5/no_target/C_5_NT_5.jpg,Thu Aug 19 2021 15:48:54 GMT+0200 (Mitteleuropäische Sommerzeit),1629380934780,35.592216666666666,50,main
2686,879,25,,conjunction,correct,right,1629383070313,no target,256,female,194,s,"Low German, German",15,images/main/conjunction/15/no_target/C_15_NT_2.jpg,Thu Aug 19 2021 15:48:54 GMT+0200 (Mitteleuropäische Sommerzeit),1629380934780,35.592216666666666,51,main
2686,618,25,,conjunction,correct,right,1629383070313,target,256,female,154,l,"Low German, German",1,images/main/conjunction/1/target/C_1_T_2.jpg,Thu Aug 19 2021 15:48:54 GMT+0200 (Mitteleuropäische Sommerzeit),1629380934780,35.592216666666666,52,main
2686,622,25,,conjunction,correct,right,1629383070313,target,256,female,160,l,"Low German, German",1,images/main/conjunction/1/target/C_1_T_8.jpg,Thu Aug 19 2021 15:48:54 GMT+0200 (Mitteleuropäische Sommerzeit),1629380934780,35.592216666666666,53,main
2686,1227,25,,conjunction,correct,right,1629383070313,target,256,female,189,l,"Low German, German",15,images/main/conjunction/15/target/C_15_T_5.jpg,Thu Aug 19 2021 15:48:54 GMT+0200 (Mitteleuropäische Sommerzeit),1629380934780,35.592216666666666,54,main
2686,624,25,,conjunction,correct,right,1629383070313,no target,256,female,166,s,"Low German, German",1,images/main/conjunction/1/no_target/C_1_NT_6.jpg,Thu Aug 19 2021 15:48:54 GMT+0200 (Mitteleuropäische Sommerzeit),1629380934780,35.592216666666666,55,main
2686,1605,25,,conjunction,incorrect,right,1629383070313,target,256,female,206,s,"Low German, German",30,images/main/conjunction/30/target/C_30_T_6.jpg,Thu Aug 19 2021 15:48:54 GMT+0200 (Mitteleuropäische Sommerzeit),1629380934780,35.592216666666666,56,main
2686,1555,25,,conjunction,correct,right,1629383070313,no target,256,female,213,s,"Low German, German",30,images/main/conjunction/30/no_target/C_30_NT_5.jpg,Thu Aug 19 2021 15:48:54 GMT+0200 (Mitteleuropäische Sommerzeit),1629380934780,35.592216666666666,57,main
2686,753,25,,conjunction,correct,right,1629383070313,target,256,female,186,l,"Low German, German",15,images/main/conjunction/15/target/C_15_T_2.jpg,Thu Aug 19 2021 15:48:54 GMT+0200 (Mitteleuropäische Sommerzeit),1629380934780,35.592216666666666,58,main
2686,1251,25,,conjunction,correct,right,1629383070313,no target,256,female,211,s,"Low German, German",30,images/main/conjunction/30/no_target/C_30_NT_3.jpg,Thu Aug 19 2021 15:48:54 GMT+0200 (Mitteleuropäische Sommerzeit),1629380934780,35.592216666666666,59,main
2686,1018,25,,conjunction,correct,right,1629383070313,target,256,female,185,l,"Low German, German",15,images/main/conjunction/15/target/C_15_T_1.jpg,Thu Aug 19 2021 15:48:54 GMT+0200 (Mitteleuropäische Sommerzeit),1629380934780,35.592216666666666,60,main
2686,1118,25,,conjunction,correct,right,1629383070313,target,256,female,191,l,"Low German, German",15,images/main/conjunction/15/target/C_15_T_7.jpg,Thu Aug 19 2021 15:48:54 GMT+0200 (Mitteleuropäische Sommerzeit),1629380934780,35.592216666666666,61,main
2686,778,25,,conjunction,correct,right,1629383070313,target,256,female,192,l,"Low German, German",15,images/main/conjunction/15/target/C_15_T_8.jpg,Thu Aug 19 2021 15:48:54 GMT+0200 (Mitteleuropäische Sommerzeit),1629380934780,35.592216666666666,62,main
2686,1115,25,,conjunction,correct,right,1629383070313,target,256,female,207,l,"Low German, German",30,images/main/conjunction/30/target/C_30_T_7.jpg,Thu Aug 19 2021 15:48:54 GMT+0200 (Mitteleuropäische Sommerzeit),1629380934780,35.592216666666666,63,main
2686,646,25,,conjunction,correct,right,1629383070313,no target,256,female,165,s,"Low German, German",1,images/main/conjunction/1/no_target/C_1_NT_5.jpg,Thu Aug 19 2021 15:48:54 GMT+0200 (Mitteleuropäische Sommerzeit),1629380934780,35.592216666666666,64,main
2686,671,25,,conjunction,correct,right,1629383070313,target,256,female,176,l,"Low German, German",5,images/main/conjunction/5/target/C_5_T_8.jpg,Thu Aug 19 2021 15:48:54 GMT+0200 (Mitteleuropäische Sommerzeit),1629380934780,35.592216666666666,1,main
2686,1527,25,,conjunction,correct,right,1629383070313,no target,256,female,193,s,"Low German, German",15,images/main/conjunction/15/no_target/C_15_NT_1.jpg,Thu Aug 19 2021 15:48:54 GMT+0200 (Mitteleuropäische Sommerzeit),1629380934780,35.592216666666666,2,main
2686,926,25,,conjunction,correct,right,1629383070313,target,256,female,201,l,"Low German, German",30,images/main/conjunction/30/target/C_30_T_1.jpg,Thu Aug 19 2021 15:48:54 GMT+0200 (Mitteleuropäische Sommerzeit),1629380934780,35.592216666666666,3,main
2686,1600,25,,conjunction,correct,right,1629383070313,no target,256,female,215,s,"Low German, German",30,images/main/conjunction/30/no_target/C_30_NT_7.jpg,Thu Aug 19 2021 15:48:54 GMT+0200 (Mitteleuropäische Sommerzeit),1629380934780,35.592216666666666,4,main
2686,982,25,,conjunction,correct,right,1629383070313,no target,256,female,212,s,"Low German, German",30,images/main/conjunction/30/no_target/C_30_NT_4.jpg,Thu Aug 19 2021 15:48:54 GMT+0200 (Mitteleuropäische Sommerzeit),1629380934780,35.592216666666666,5,main
2686,671,25,,conjunction,correct,right,1629383070313,target,256,female,155,l,"Low German, German",1,images/main/conjunction/1/target/C_1_T_3.jpg,Thu Aug 19 2021 15:48:54 GMT+0200 (Mitteleuropäische Sommerzeit),1629380934780,35.592216666666666,6,main
2686,1195,25,,conjunction,correct,right,1629383070313,target,256,female,203,l,"Low German, German",30,images/main/conjunction/30/target/C_30_T_3.jpg,Thu Aug 19 2021 15:48:54 GMT+0200 (Mitteleuropäische Sommerzeit),1629380934780,35.592216666666666,7,main
2686,820,25,,conjunction,correct,right,1629383070313,target,256,female,189,l,"Low German, German",15,images/main/conjunction/15/target/C_15_T_5.jpg,Thu Aug 19 2021 15:48:54 GMT+0200 (Mitteleuropäische Sommerzeit),1629380934780,35.592216666666666,8,main
2686,1452,25,,conjunction,correct,right,1629383070313,target,256,female,188,l,"Low German, German",15,images/main/conjunction/15/target/C_15_T_4.jpg,Thu Aug 19 2021 15:48:54 GMT+0200 (Mitteleuropäische Sommerzeit),1629380934780,35.592216666666666,9,main
2686,581,25,,conjunction,correct,right,1629383070313,target,256,female,207,l,"Low German, German",30,images/main/conjunction/30/target/C_30_T_7.jpg,Thu Aug 19 2021 15:48:54 GMT+0200 (Mitteleuropäische Sommerzeit),1629380934780,35.592216666666666,10,main
2686,727,25,,conjunction,correct,right,1629383070313,no target,256,female,163,s,"Low German, German",1,images/main/conjunction/1/no_target/C_1_NT_3.jpg,Thu Aug 19 2021 15:48:54 GMT+0200 (Mitteleuropäische Sommerzeit),1629380934780,35.592216666666666,11,main
2686,1095,25,,conjunction,correct,right,1629383070313,target,256,female,204,l,"Low German, German",30,images/main/conjunction/30/target/C_30_T_4.jpg,Thu Aug 19 2021 15:48:54 GMT+0200 (Mitteleuropäische Sommerzeit),1629380934780,35.592216666666666,12,main
2686,1629,25,,conjunction,correct,right,1629383070313,no target,256,female,216,s,"Low German, German",30,images/main/conjunction/30/no_target/C_30_NT_8.jpg,Thu Aug 19 2021 15:48:54 GMT+0200 (Mitteleuropäische Sommerzeit),1629380934780,35.592216666666666,13,main
2686,572,25,,conjunction,correct,right,1629383070313,target,256,female,157,l,"Low German, German",1,images/main/conjunction/1/target/C_1_T_5.jpg,Thu Aug 19 2021 15:48:54 GMT+0200 (Mitteleuropäische Sommerzeit),1629380934780,35.592216666666666,14,main
2686,1415,25,,conjunction,correct,right,1629383070313,target,256,female,208,l,"Low German, German",30,images/main/conjunction/30/target/C_30_T_8.jpg,Thu Aug 19 2021 15:48:54 GMT+0200 (Mitteleuropäische Sommerzeit),1629380934780,35.592216666666666,15,main
2686,1088,25,,conjunction,correct,right,1629383070313,no target,256,female,198,s,"Low German, German",15,images/main/conjunction/15/no_target/C_15_NT_6.jpg,Thu Aug 19 2021 15:48:54 GMT+0200 (Mitteleuropäische Sommerzeit),1629380934780,35.592216666666666,16,main
2686,1035,25,,conjunction,correct,right,1629383070313,no target,256,female,184,s,"Low German, German",5,images/main/conjunction/5/no_target/C_5_NT_8.jpg,Thu Aug 19 2021 15:48:54 GMT+0200 (Mitteleuropäische Sommerzeit),1629380934780,35.592216666666666,17,main
2686,635,25,,conjunction,correct,right,1629383070313,target,256,female,192,l,"Low German, German",15,images/main/conjunction/15/target/C_15_T_8.jpg,Thu Aug 19 2021 15:48:54 GMT+0200 (Mitteleuropäische Sommerzeit),1629380934780,35.592216666666666,18,main
2686,978,25,,conjunction,correct,right,1629383070313,no target,256,female,178,s,"Low German, German",5,images/main/conjunction/5/no_target/C_5_NT_2.jpg,Thu Aug 19 2021 15:48:54 GMT+0200 (Mitteleuropäische Sommerzeit),1629380934780,35.592216666666666,19,main
2686,544,25,,conjunction,correct,right,1629383070313,target,256,female,156,l,"Low German, German",1,images/main/conjunction/1/target/C_1_T_4.jpg,Thu Aug 19 2021 15:48:54 GMT+0200 (Mitteleuropäische Sommerzeit),1629380934780,35.592216666666666,20,main
2686,1213,25,,conjunction,correct,right,1629383070313,no target,256,female,199,s,"Low German, German",15,images/main/conjunction/15/no_target/C_15_NT_7.jpg,Thu Aug 19 2021 15:48:54 GMT+0200 (Mitteleuropäische Sommerzeit),1629380934780,35.592216666666666,21,main
2686,586,25,,conjunction,correct,right,1629383070313,target,256,female,158,l,"Low German, German",1,images/main/conjunction/1/target/C_1_T_6.jpg,Thu Aug 19 2021 15:48:54 GMT+0200 (Mitteleuropäische Sommerzeit),1629380934780,35.592216666666666,22,main
2686,743,25,,conjunction,correct,right,1629383070313,no target,256,female,183,s,"Low German, German",5,images/main/conjunction/5/no_target/C_5_NT_7.jpg,Thu Aug 19 2021 15:48:54 GMT+0200 (Mitteleuropäische Sommerzeit),1629380934780,35.592216666666666,23,main
2686,1379,25,,conjunction,correct,right,1629383070313,no target,256,female,214,s,"Low German, German",30,images/main/conjunction/30/no_target/C_30_NT_6.jpg,Thu Aug 19 2021 15:48:54 GMT+0200 (Mitteleuropäische Sommerzeit),1629380934780,35.592216666666666,24,main
2686,1116,25,,conjunction,correct,right,1629383070313,no target,256,female,213,s,"Low German, German",30,images/main/conjunction/30/no_target/C_30_NT_5.jpg,Thu Aug 19 2021 15:48:54 GMT+0200 (Mitteleuropäische Sommerzeit),1629380934780,35.592216666666666,25,main
2686,1381,25,,conjunction,correct,right,1629383070313,target,256,female,206,l,"Low German, German",30,images/main/conjunction/30/target/C_30_T_6.jpg,Thu Aug 19 2021 15:48:54 GMT+0200 (Mitteleuropäische Sommerzeit),1629380934780,35.592216666666666,26,main
2686,777,25,,conjunction,correct,right,1629383070313,no target,256,female,181,s,"Low German, German",5,images/main/conjunction/5/no_target/C_5_NT_5.jpg,Thu Aug 19 2021 15:48:54 GMT+0200 (Mitteleuropäische Sommerzeit),1629380934780,35.592216666666666,27,main
2686,836,25,,conjunction,correct,right,1629383070313,target,256,female,170,l,"Low German, German",5,images/main/conjunction/5/target/C_5_T_2.jpg,Thu Aug 19 2021 15:48:54 GMT+0200 (Mitteleuropäische Sommerzeit),1629380934780,35.592216666666666,28,main
2686,835,25,,conjunction,correct,right,1629383070313,no target,256,female,168,s,"Low German, German",1,images/main/conjunction/1/no_target/C_1_NT_8.jpg,Thu Aug 19 2021 15:48:54 GMT+0200 (Mitteleuropäische Sommerzeit),1629380934780,35.592216666666666,29,main
2686,1333,25,,conjunction,correct,right,1629383070313,no target,256,female,200,s,"Low German, German",15,images/main/conjunction/15/no_target/C_15_NT_8.jpg,Thu Aug 19 2021 15:48:54 GMT+0200 (Mitteleuropäische Sommerzeit),1629380934780,35.592216666666666,30,main
2686,959,25,,conjunction,correct,right,1629383070313,no target,256,female,196,s,"Low German, German",15,images/main/conjunction/15/no_target/C_15_NT_4.jpg,Thu Aug 19 2021 15:48:54 GMT+0200 (Mitteleuropäische Sommerzeit),1629380934780,35.592216666666666,31,main
2686,850,25,,conjunction,correct,right,1629383070313,no target,256,female,182,s,"Low German, German",5,images/main/conjunction/5/no_target/C_5_NT_6.jpg,Thu Aug 19 2021 15:48:54 GMT+0200 (Mitteleuropäische Sommerzeit),1629380934780,35.592216666666666,32,main
2686,1994,25,,conjunction,correct,right,1629383070313,no target,256,female,210,s,"Low German, German",30,images/main/conjunction/30/no_target/C_30_NT_2.jpg,Thu Aug 19 2021 15:48:54 GMT+0200 (Mitteleuropäische Sommerzeit),1629380934780,35.592216666666666,33,main
2686,678,25,,conjunction,correct,right,1629383070313,target,256,female,171,l,"Low German, German",5,images/main/conjunction/5/target/C_5_T_3.jpg,Thu Aug 19 2021 15:48:54 GMT+0200 (Mitteleuropäische Sommerzeit),1629380934780,35.592216666666666,34,main
2686,772,25,,conjunction,correct,right,1629383070313,no target,256,female,179,s,"Low German, German",5,images/main/conjunction/5/no_target/C_5_NT_3.jpg,Thu Aug 19 2021 15:48:54 GMT+0200 (Mitteleuropäische Sommerzeit),1629380934780,35.592216666666666,35,main
2686,672,25,,conjunction,correct,right,1629383070313,no target,256,female,164,s,"Low German, German",1,images/main/conjunction/1/no_target/C_1_NT_4.jpg,Thu Aug 19 2021 15:48:54 GMT+0200 (Mitteleuropäische Sommerzeit),1629380934780,35.592216666666666,36,main
2686,1873,25,,conjunction,correct,right,1629383070313,no target,256,female,211,s,"Low German, German",30,images/main/conjunction/30/no_target/C_30_NT_3.jpg,Thu Aug 19 2021 15:48:54 GMT+0200 (Mitteleuropäische Sommerzeit),1629380934780,35.592216666666666,37,main
2686,650,25,,conjunction,correct,right,1629383070313,no target,256,female,165,s,"Low German, German",1,images/main/conjunction/1/no_target/C_1_NT_5.jpg,Thu Aug 19 2021 15:48:54 GMT+0200 (Mitteleuropäische Sommerzeit),1629380934780,35.592216666666666,38,main
2686,844,25,,conjunction,correct,right,1629383070313,target,256,female,173,l,"Low German, German",5,images/main/conjunction/5/target/C_5_T_5.jpg,Thu Aug 19 2021 15:48:54 GMT+0200 (Mitteleuropäische Sommerzeit),1629380934780,35.592216666666666,39,main
2686,836,25,,conjunction,correct,right,1629383070313,no target,256,female,194,s,"Low German, German",15,images/main/conjunction/15/no_target/C_15_NT_2.jpg,Thu Aug 19 2021 15:48:54 GMT+0200 (Mitteleuropäische Sommerzeit),1629380934780,35.592216666666666,40,main
2686,726,25,,conjunction,correct,right,1629383070313,no target,256,female,177,s,"Low German, German",5,images/main/conjunction/5/no_target/C_5_NT_1.jpg,Thu Aug 19 2021 15:48:54 GMT+0200 (Mitteleuropäische Sommerzeit),1629380934780,35.592216666666666,41,main
2686,1045,25,,conjunction,correct,right,1629383070313,target,256,female,185,l,"Low German, German",15,images/main/conjunction/15/target/C_15_T_1.jpg,Thu Aug 19 2021 15:48:54 GMT+0200 (Mitteleuropäische Sommerzeit),1629380934780,35.592216666666666,42,main
2686,621,25,,conjunction,correct,right,1629383070313,target,256,female,159,l,"Low German, German",1,images/main/conjunction/1/target/C_1_T_7.jpg,Thu Aug 19 2021 15:48:54 GMT+0200 (Mitteleuropäische Sommerzeit),1629380934780,35.592216666666666,43,main
2686,679,25,,conjunction,correct,right,1629383070313,target,256,female,187,l,"Low German, German",15,images/main/conjunction/15/target/C_15_T_3.jpg,Thu Aug 19 2021 15:48:54 GMT+0200 (Mitteleuropäische Sommerzeit),1629380934780,35.592216666666666,44,main
2686,560,25,,conjunction,correct,right,1629383070313,no target,256,female,167,s,"Low German, German",1,images/main/conjunction/1/no_target/C_1_NT_7.jpg,Thu Aug 19 2021 15:48:54 GMT+0200 (Mitteleuropäische Sommerzeit),1629380934780,35.592216666666666,45,main
2686,961,25,,conjunction,correct,right,1629383070313,no target,256,female,161,s,"Low German, German",1,images/main/conjunction/1/no_target/C_1_NT_1.jpg,Thu Aug 19 2021 15:48:54 GMT+0200 (Mitteleuropäische Sommerzeit),1629380934780,35.592216666666666,46,main
2686,900,25,,conjunction,correct,right,1629383070313,no target,256,female,197,s,"Low German, German",15,images/main/conjunction/15/no_target/C_15_NT_5.jpg,Thu Aug 19 2021 15:48:54 GMT+0200 (Mitteleuropäische Sommerzeit),1629380934780,35.592216666666666,47,main
2686,667,25,,conjunction,correct,right,1629383070313,target,256,female,172,l,"Low German, German",5,images/main/conjunction/5/target/C_5_T_4.jpg,Thu Aug 19 2021 15:48:54 GMT+0200 (Mitteleuropäische Sommerzeit),1629380934780,35.592216666666666,48,main
2686,1355,25,,conjunction,correct,right,1629383070313,no target,256,female,209,s,"Low German, German",30,images/main/conjunction/30/no_target/C_30_NT_1.jpg,Thu Aug 19 2021 15:48:54 GMT+0200 (Mitteleuropäische Sommerzeit),1629380934780,35.592216666666666,49,main
2686,593,25,,conjunction,correct,right,1629383070313,no target,256,female,162,s,"Low German, German",1,images/main/conjunction/1/no_target/C_1_NT_2.jpg,Thu Aug 19 2021 15:48:54 GMT+0200 (Mitteleuropäische Sommerzeit),1629380934780,35.592216666666666,50,main
2686,782,25,,conjunction,correct,right,1629383070313,target,256,female,186,l,"Low German, German",15,images/main/conjunction/15/target/C_15_T_2.jpg,Thu Aug 19 2021 15:48:54 GMT+0200 (Mitteleuropäische Sommerzeit),1629380934780,35.592216666666666,51,main
2686,786,25,,conjunction,correct,right,1629383070313,no target,256,female,195,s,"Low German, German",15,images/main/conjunction/15/no_target/C_15_NT_3.jpg,Thu Aug 19 2021 15:48:54 GMT+0200 (Mitteleuropäische Sommerzeit),1629380934780,35.592216666666666,52,main
2686,1429,25,,conjunction,incorrect,right,1629383070313,target,256,female,202,s,"Low German, German",30,images/main/conjunction/30/target/C_30_T_2.jpg,Thu Aug 19 2021 15:48:54 GMT+0200 (Mitteleuropäische Sommerzeit),1629380934780,35.592216666666666,53,main
2686,1410,25,,conjunction,correct,right,1629383070313,target,256,female,191,l,"Low German, German",15,images/main/conjunction/15/target/C_15_T_7.jpg,Thu Aug 19 2021 15:48:54 GMT+0200 (Mitteleuropäische Sommerzeit),1629380934780,35.592216666666666,54,main
2686,698,25,,conjunction,correct,right,1629383070313,target,256,female,153,l,"Low German, German",1,images/main/conjunction/1/target/C_1_T_1.jpg,Thu Aug 19 2021 15:48:54 GMT+0200 (Mitteleuropäische Sommerzeit),1629380934780,35.592216666666666,55,main
2686,675,25,,conjunction,correct,right,1629383070313,target,256,female,190,l,"Low German, German",15,images/main/conjunction/15/target/C_15_T_6.jpg,Thu Aug 19 2021 15:48:54 GMT+0200 (Mitteleuropäische Sommerzeit),1629380934780,35.592216666666666,56,main
2686,753,25,,conjunction,correct,right,1629383070313,no target,256,female,180,s,"Low German, German",5,images/main/conjunction/5/no_target/C_5_NT_4.jpg,Thu Aug 19 2021 15:48:54 GMT+0200 (Mitteleuropäische Sommerzeit),1629380934780,35.592216666666666,57,main
