submission_id,RT,age,comments,condition,correctness,education,endTime,expected,experiment_id,gender,item,key_pressed,languages,number_of_items,picture,startDate,startTime,timeSpent,trial_number,trial_type
3221,3919,23,loved it!,conjunction,correct,right,1630351317772,no target,256,female,18,s,German,1,images/practice/conjunction/C_1_NT_TRAIN.jpg,Mon Aug 30 2021 18:43:06 GMT+0100 (BST),1630345386664,98.8518,1,practice
3221,1380,23,loved it!,conjunction,correct,right,1630351317772,target,256,female,23,l,German,30,images/practice/conjunction/C_30_T_TRAIN.jpg,Mon Aug 30 2021 18:43:06 GMT+0100 (BST),1630345386664,98.8518,2,practice
3221,1429,23,loved it!,conjunction,correct,right,1630351317772,target,256,female,21,l,German,15,images/practice/conjunction/C_15_T_TRAIN.jpg,Mon Aug 30 2021 18:43:06 GMT+0100 (BST),1630345386664,98.8518,3,practice
3221,1691,23,loved it!,conjunction,correct,right,1630351317772,no target,256,female,22,s,German,15,images/practice/conjunction/C_15_NT_TRAIN.jpg,Mon Aug 30 2021 18:43:06 GMT+0100 (BST),1630345386664,98.8518,4,practice
3221,1482,23,loved it!,conjunction,correct,right,1630351317772,target,256,female,17,l,German,1,images/practice/conjunction/C_1_T_TRAIN.jpg,Mon Aug 30 2021 18:43:06 GMT+0100 (BST),1630345386664,98.8518,5,practice
3221,1567,23,loved it!,conjunction,correct,right,1630351317772,no target,256,female,20,s,German,5,images/practice/conjunction/C_5_NT_TRAIN.jpg,Mon Aug 30 2021 18:43:06 GMT+0100 (BST),1630345386664,98.8518,6,practice
3221,1384,23,loved it!,conjunction,correct,right,1630351317772,target,256,female,19,l,German,5,images/practice/conjunction/C_5_T_TRAIN.jpg,Mon Aug 30 2021 18:43:06 GMT+0100 (BST),1630345386664,98.8518,7,practice
3221,3111,23,loved it!,conjunction,correct,right,1630351317772,no target,256,female,24,s,German,30,images/practice/conjunction/C_30_NT_TRAIN.jpg,Mon Aug 30 2021 18:43:06 GMT+0100 (BST),1630345386664,98.8518,8,practice
3221,1379,23,loved it!,shape,correct,right,1630351317772,target,256,female,7,l,German,30,images/practice/feature/F_C_30_T_8_Sgreen_TRAIN.jpg,Mon Aug 30 2021 18:43:06 GMT+0100 (BST),1630345386664,98.8518,1,practice
3221,1049,23,loved it!,color,incorrect,right,1630351317772,target,256,female,1,s,German,1,images/practice/feature/F_C_1_T_1_Tblue_TRAIN.jpg,Mon Aug 30 2021 18:43:06 GMT+0100 (BST),1630345386664,98.8518,2,practice
3221,1871,23,loved it!,color,correct,right,1630351317772,no target,256,female,6,s,German,15,images/practice/feature/F_C_15_NT_TRAIN.jpg,Mon Aug 30 2021 18:43:06 GMT+0100 (BST),1630345386664,98.8518,3,practice
3221,1323,23,loved it!,shape,correct,right,1630351317772,no target,256,female,4,s,German,5,images/practice/feature/F_5_NT_TRAIN.jpg,Mon Aug 30 2021 18:43:06 GMT+0100 (BST),1630345386664,98.8518,4,practice
3221,1332,23,loved it!,color,correct,right,1630351317772,no target,256,female,2,s,German,1,images/practice/feature/F_1_NT_TRAIN.jpg,Mon Aug 30 2021 18:43:06 GMT+0100 (BST),1630345386664,98.8518,5,practice
3221,1034,23,loved it!,shape,correct,right,1630351317772,no target,256,female,8,s,German,30,images/practice/feature/F_C_30_NT_1_TRAIN.jpg,Mon Aug 30 2021 18:43:06 GMT+0100 (BST),1630345386664,98.8518,6,practice
3221,1358,23,loved it!,color,correct,right,1630351317772,target,256,female,5,l,German,15,images/practice/feature/F_C_15_T_5_Xblue_TRAIN.jpg,Mon Aug 30 2021 18:43:06 GMT+0100 (BST),1630345386664,98.8518,7,practice
3221,1280,23,loved it!,shape,correct,right,1630351317772,target,256,female,3,l,German,5,images/practice/feature/F_5_T_3_Sbrown_TRAIN.jpg,Mon Aug 30 2021 18:43:06 GMT+0100 (BST),1630345386664,98.8518,8,practice
3221,1482,23,loved it!,conjunction,correct,right,1630351317772,target,256,female,207,l,German,30,images/main/conjunction/30/target/C_30_T_7.jpg,Mon Aug 30 2021 18:43:06 GMT+0100 (BST),1630345386664,98.8518,1,main
3221,935,23,loved it!,conjunction,correct,right,1630351317772,target,256,female,155,l,German,1,images/main/conjunction/1/target/C_1_T_3.jpg,Mon Aug 30 2021 18:43:06 GMT+0100 (BST),1630345386664,98.8518,2,main
3221,1118,23,loved it!,conjunction,correct,right,1630351317772,target,256,female,176,l,German,5,images/main/conjunction/5/target/C_5_T_8.jpg,Mon Aug 30 2021 18:43:06 GMT+0100 (BST),1630345386664,98.8518,3,main
3221,1049,23,loved it!,conjunction,correct,right,1630351317772,target,256,female,174,l,German,5,images/main/conjunction/5/target/C_5_T_6.jpg,Mon Aug 30 2021 18:43:06 GMT+0100 (BST),1630345386664,98.8518,4,main
3221,1935,23,loved it!,conjunction,correct,right,1630351317772,no target,256,female,161,s,German,1,images/main/conjunction/1/no_target/C_1_NT_1.jpg,Mon Aug 30 2021 18:43:06 GMT+0100 (BST),1630345386664,98.8518,5,main
3221,892,23,loved it!,conjunction,correct,right,1630351317772,target,256,female,205,l,German,30,images/main/conjunction/30/target/C_30_T_5.jpg,Mon Aug 30 2021 18:43:06 GMT+0100 (BST),1630345386664,98.8518,6,main
3221,1007,23,loved it!,conjunction,incorrect,right,1630351317772,no target,256,female,211,l,German,30,images/main/conjunction/30/no_target/C_30_NT_3.jpg,Mon Aug 30 2021 18:43:06 GMT+0100 (BST),1630345386664,98.8518,7,main
3221,1260,23,loved it!,conjunction,correct,right,1630351317772,no target,256,female,214,s,German,30,images/main/conjunction/30/no_target/C_30_NT_6.jpg,Mon Aug 30 2021 18:43:06 GMT+0100 (BST),1630345386664,98.8518,8,main
3221,1342,23,loved it!,conjunction,correct,right,1630351317772,no target,256,female,215,s,German,30,images/main/conjunction/30/no_target/C_30_NT_7.jpg,Mon Aug 30 2021 18:43:06 GMT+0100 (BST),1630345386664,98.8518,9,main
3221,720,23,loved it!,conjunction,correct,right,1630351317772,no target,256,female,177,s,German,5,images/main/conjunction/5/no_target/C_5_NT_1.jpg,Mon Aug 30 2021 18:43:06 GMT+0100 (BST),1630345386664,98.8518,10,main
3221,678,23,loved it!,conjunction,incorrect,right,1630351317772,target,256,female,153,s,German,1,images/main/conjunction/1/target/C_1_T_1.jpg,Mon Aug 30 2021 18:43:06 GMT+0100 (BST),1630345386664,98.8518,11,main
3221,1436,23,loved it!,conjunction,correct,right,1630351317772,no target,256,female,178,s,German,5,images/main/conjunction/5/no_target/C_5_NT_2.jpg,Mon Aug 30 2021 18:43:06 GMT+0100 (BST),1630345386664,98.8518,12,main
3221,1151,23,loved it!,conjunction,correct,right,1630351317772,target,256,female,169,l,German,5,images/main/conjunction/5/target/C_5_T_1.jpg,Mon Aug 30 2021 18:43:06 GMT+0100 (BST),1630345386664,98.8518,13,main
3221,1350,23,loved it!,conjunction,incorrect,right,1630351317772,no target,256,female,209,l,German,30,images/main/conjunction/30/no_target/C_30_NT_1.jpg,Mon Aug 30 2021 18:43:06 GMT+0100 (BST),1630345386664,98.8518,14,main
3221,1010,23,loved it!,conjunction,correct,right,1630351317772,target,256,female,185,l,German,15,images/main/conjunction/15/target/C_15_T_1.jpg,Mon Aug 30 2021 18:43:06 GMT+0100 (BST),1630345386664,98.8518,15,main
3221,1192,23,loved it!,conjunction,correct,right,1630351317772,target,256,female,172,l,German,5,images/main/conjunction/5/target/C_5_T_4.jpg,Mon Aug 30 2021 18:43:06 GMT+0100 (BST),1630345386664,98.8518,16,main
3221,1300,23,loved it!,conjunction,correct,right,1630351317772,no target,256,female,184,s,German,5,images/main/conjunction/5/no_target/C_5_NT_8.jpg,Mon Aug 30 2021 18:43:06 GMT+0100 (BST),1630345386664,98.8518,17,main
3221,735,23,loved it!,conjunction,correct,right,1630351317772,target,256,female,170,l,German,5,images/main/conjunction/5/target/C_5_T_2.jpg,Mon Aug 30 2021 18:43:06 GMT+0100 (BST),1630345386664,98.8518,18,main
3221,1745,23,loved it!,conjunction,correct,right,1630351317772,no target,256,female,198,s,German,15,images/main/conjunction/15/no_target/C_15_NT_6.jpg,Mon Aug 30 2021 18:43:06 GMT+0100 (BST),1630345386664,98.8518,19,main
3221,1334,23,loved it!,conjunction,correct,right,1630351317772,no target,256,female,165,s,German,1,images/main/conjunction/1/no_target/C_1_NT_5.jpg,Mon Aug 30 2021 18:43:06 GMT+0100 (BST),1630345386664,98.8518,20,main
3221,1615,23,loved it!,conjunction,incorrect,right,1630351317772,target,256,female,203,s,German,30,images/main/conjunction/30/target/C_30_T_3.jpg,Mon Aug 30 2021 18:43:06 GMT+0100 (BST),1630345386664,98.8518,21,main
3221,951,23,loved it!,conjunction,correct,right,1630351317772,no target,256,female,166,s,German,1,images/main/conjunction/1/no_target/C_1_NT_6.jpg,Mon Aug 30 2021 18:43:06 GMT+0100 (BST),1630345386664,98.8518,22,main
3221,1474,23,loved it!,conjunction,correct,right,1630351317772,target,256,female,201,l,German,30,images/main/conjunction/30/target/C_30_T_1.jpg,Mon Aug 30 2021 18:43:06 GMT+0100 (BST),1630345386664,98.8518,23,main
3221,1670,23,loved it!,conjunction,correct,right,1630351317772,target,256,female,188,l,German,15,images/main/conjunction/15/target/C_15_T_4.jpg,Mon Aug 30 2021 18:43:06 GMT+0100 (BST),1630345386664,98.8518,24,main
3221,1426,23,loved it!,conjunction,correct,right,1630351317772,no target,256,female,200,s,German,15,images/main/conjunction/15/no_target/C_15_NT_8.jpg,Mon Aug 30 2021 18:43:06 GMT+0100 (BST),1630345386664,98.8518,25,main
3221,1332,23,loved it!,conjunction,correct,right,1630351317772,target,256,female,171,l,German,5,images/main/conjunction/5/target/C_5_T_3.jpg,Mon Aug 30 2021 18:43:06 GMT+0100 (BST),1630345386664,98.8518,26,main
3221,2337,23,loved it!,conjunction,correct,right,1630351317772,no target,256,female,210,s,German,30,images/main/conjunction/30/no_target/C_30_NT_2.jpg,Mon Aug 30 2021 18:43:06 GMT+0100 (BST),1630345386664,98.8518,27,main
3221,736,23,loved it!,conjunction,correct,right,1630351317772,target,256,female,187,l,German,15,images/main/conjunction/15/target/C_15_T_3.jpg,Mon Aug 30 2021 18:43:06 GMT+0100 (BST),1630345386664,98.8518,28,main
3221,1184,23,loved it!,conjunction,incorrect,right,1630351317772,no target,256,female,180,l,German,5,images/main/conjunction/5/no_target/C_5_NT_4.jpg,Mon Aug 30 2021 18:43:06 GMT+0100 (BST),1630345386664,98.8518,29,main
3221,1051,23,loved it!,conjunction,correct,right,1630351317772,no target,256,female,182,s,German,5,images/main/conjunction/5/no_target/C_5_NT_6.jpg,Mon Aug 30 2021 18:43:06 GMT+0100 (BST),1630345386664,98.8518,30,main
3221,1030,23,loved it!,conjunction,correct,right,1630351317772,no target,256,female,163,s,German,1,images/main/conjunction/1/no_target/C_1_NT_3.jpg,Mon Aug 30 2021 18:43:06 GMT+0100 (BST),1630345386664,98.8518,31,main
3221,1159,23,loved it!,conjunction,correct,right,1630351317772,target,256,female,190,l,German,15,images/main/conjunction/15/target/C_15_T_6.jpg,Mon Aug 30 2021 18:43:06 GMT+0100 (BST),1630345386664,98.8518,32,main
3221,1451,23,loved it!,conjunction,correct,right,1630351317772,no target,256,female,167,s,German,1,images/main/conjunction/1/no_target/C_1_NT_7.jpg,Mon Aug 30 2021 18:43:06 GMT+0100 (BST),1630345386664,98.8518,33,main
3221,2498,23,loved it!,conjunction,correct,right,1630351317772,no target,256,female,216,s,German,30,images/main/conjunction/30/no_target/C_30_NT_8.jpg,Mon Aug 30 2021 18:43:06 GMT+0100 (BST),1630345386664,98.8518,34,main
3221,1317,23,loved it!,conjunction,correct,right,1630351317772,no target,256,female,197,s,German,15,images/main/conjunction/15/no_target/C_15_NT_5.jpg,Mon Aug 30 2021 18:43:06 GMT+0100 (BST),1630345386664,98.8518,35,main
3221,1432,23,loved it!,conjunction,correct,right,1630351317772,target,256,female,208,l,German,30,images/main/conjunction/30/target/C_30_T_8.jpg,Mon Aug 30 2021 18:43:06 GMT+0100 (BST),1630345386664,98.8518,36,main
3221,2772,23,loved it!,conjunction,correct,right,1630351317772,target,256,female,173,l,German,5,images/main/conjunction/5/target/C_5_T_5.jpg,Mon Aug 30 2021 18:43:06 GMT+0100 (BST),1630345386664,98.8518,37,main
3221,1342,23,loved it!,conjunction,correct,right,1630351317772,target,256,female,192,l,German,15,images/main/conjunction/15/target/C_15_T_8.jpg,Mon Aug 30 2021 18:43:06 GMT+0100 (BST),1630345386664,98.8518,38,main
3221,1653,23,loved it!,conjunction,correct,right,1630351317772,no target,256,female,195,s,German,15,images/main/conjunction/15/no_target/C_15_NT_3.jpg,Mon Aug 30 2021 18:43:06 GMT+0100 (BST),1630345386664,98.8518,39,main
3221,1003,23,loved it!,conjunction,correct,right,1630351317772,no target,256,female,162,s,German,1,images/main/conjunction/1/no_target/C_1_NT_2.jpg,Mon Aug 30 2021 18:43:06 GMT+0100 (BST),1630345386664,98.8518,40,main
3221,1135,23,loved it!,conjunction,correct,right,1630351317772,target,256,female,158,l,German,1,images/main/conjunction/1/target/C_1_T_6.jpg,Mon Aug 30 2021 18:43:06 GMT+0100 (BST),1630345386664,98.8518,41,main
3221,1487,23,loved it!,conjunction,correct,right,1630351317772,no target,256,female,196,s,German,15,images/main/conjunction/15/no_target/C_15_NT_4.jpg,Mon Aug 30 2021 18:43:06 GMT+0100 (BST),1630345386664,98.8518,42,main
3221,747,23,loved it!,conjunction,correct,right,1630351317772,no target,256,female,164,s,German,1,images/main/conjunction/1/no_target/C_1_NT_4.jpg,Mon Aug 30 2021 18:43:06 GMT+0100 (BST),1630345386664,98.8518,43,main
3221,4605,23,loved it!,conjunction,incorrect,right,1630351317772,target,256,female,156,s,German,1,images/main/conjunction/1/target/C_1_T_4.jpg,Mon Aug 30 2021 18:43:06 GMT+0100 (BST),1630345386664,98.8518,44,main
3221,793,23,loved it!,conjunction,correct,right,1630351317772,target,256,female,154,l,German,1,images/main/conjunction/1/target/C_1_T_2.jpg,Mon Aug 30 2021 18:43:06 GMT+0100 (BST),1630345386664,98.8518,45,main
3221,1955,23,loved it!,conjunction,incorrect,right,1630351317772,no target,256,female,199,l,German,15,images/main/conjunction/15/no_target/C_15_NT_7.jpg,Mon Aug 30 2021 18:43:06 GMT+0100 (BST),1630345386664,98.8518,46,main
3221,1021,23,loved it!,conjunction,correct,right,1630351317772,no target,256,female,181,s,German,5,images/main/conjunction/5/no_target/C_5_NT_5.jpg,Mon Aug 30 2021 18:43:06 GMT+0100 (BST),1630345386664,98.8518,47,main
3221,964,23,loved it!,conjunction,correct,right,1630351317772,target,256,female,159,l,German,1,images/main/conjunction/1/target/C_1_T_7.jpg,Mon Aug 30 2021 18:43:06 GMT+0100 (BST),1630345386664,98.8518,48,main
3221,1228,23,loved it!,conjunction,correct,right,1630351317772,target,256,female,204,l,German,30,images/main/conjunction/30/target/C_30_T_4.jpg,Mon Aug 30 2021 18:43:06 GMT+0100 (BST),1630345386664,98.8518,49,main
3221,1973,23,loved it!,conjunction,incorrect,right,1630351317772,no target,256,female,212,l,German,30,images/main/conjunction/30/no_target/C_30_NT_4.jpg,Mon Aug 30 2021 18:43:06 GMT+0100 (BST),1630345386664,98.8518,50,main
3221,1347,23,loved it!,conjunction,correct,right,1630351317772,no target,256,female,168,s,German,1,images/main/conjunction/1/no_target/C_1_NT_8.jpg,Mon Aug 30 2021 18:43:06 GMT+0100 (BST),1630345386664,98.8518,51,main
3221,4118,23,loved it!,conjunction,correct,right,1630351317772,no target,256,female,213,s,German,30,images/main/conjunction/30/no_target/C_30_NT_5.jpg,Mon Aug 30 2021 18:43:06 GMT+0100 (BST),1630345386664,98.8518,52,main
3221,1181,23,loved it!,conjunction,correct,right,1630351317772,target,256,female,160,l,German,1,images/main/conjunction/1/target/C_1_T_8.jpg,Mon Aug 30 2021 18:43:06 GMT+0100 (BST),1630345386664,98.8518,53,main
3221,1500,23,loved it!,conjunction,correct,right,1630351317772,target,256,female,157,l,German,1,images/main/conjunction/1/target/C_1_T_5.jpg,Mon Aug 30 2021 18:43:06 GMT+0100 (BST),1630345386664,98.8518,54,main
3221,1212,23,loved it!,conjunction,correct,right,1630351317772,no target,256,female,179,s,German,5,images/main/conjunction/5/no_target/C_5_NT_3.jpg,Mon Aug 30 2021 18:43:06 GMT+0100 (BST),1630345386664,98.8518,55,main
3221,1088,23,loved it!,conjunction,correct,right,1630351317772,target,256,female,202,l,German,30,images/main/conjunction/30/target/C_30_T_2.jpg,Mon Aug 30 2021 18:43:06 GMT+0100 (BST),1630345386664,98.8518,56,main
3221,1133,23,loved it!,conjunction,correct,right,1630351317772,target,256,female,175,l,German,5,images/main/conjunction/5/target/C_5_T_7.jpg,Mon Aug 30 2021 18:43:06 GMT+0100 (BST),1630345386664,98.8518,57,main
3221,1267,23,loved it!,conjunction,correct,right,1630351317772,target,256,female,186,l,German,15,images/main/conjunction/15/target/C_15_T_2.jpg,Mon Aug 30 2021 18:43:06 GMT+0100 (BST),1630345386664,98.8518,58,main
3221,1710,23,loved it!,conjunction,correct,right,1630351317772,no target,256,female,193,s,German,15,images/main/conjunction/15/no_target/C_15_NT_1.jpg,Mon Aug 30 2021 18:43:06 GMT+0100 (BST),1630345386664,98.8518,59,main
3221,2454,23,loved it!,conjunction,incorrect,right,1630351317772,target,256,female,206,s,German,30,images/main/conjunction/30/target/C_30_T_6.jpg,Mon Aug 30 2021 18:43:06 GMT+0100 (BST),1630345386664,98.8518,60,main
3221,1237,23,loved it!,conjunction,correct,right,1630351317772,no target,256,female,183,s,German,5,images/main/conjunction/5/no_target/C_5_NT_7.jpg,Mon Aug 30 2021 18:43:06 GMT+0100 (BST),1630345386664,98.8518,61,main
3221,1242,23,loved it!,conjunction,correct,right,1630351317772,target,256,female,191,l,German,15,images/main/conjunction/15/target/C_15_T_7.jpg,Mon Aug 30 2021 18:43:06 GMT+0100 (BST),1630345386664,98.8518,62,main
3221,1380,23,loved it!,conjunction,correct,right,1630351317772,target,256,female,189,l,German,15,images/main/conjunction/15/target/C_15_T_5.jpg,Mon Aug 30 2021 18:43:06 GMT+0100 (BST),1630345386664,98.8518,63,main
3221,1438,23,loved it!,conjunction,correct,right,1630351317772,no target,256,female,194,s,German,15,images/main/conjunction/15/no_target/C_15_NT_2.jpg,Mon Aug 30 2021 18:43:06 GMT+0100 (BST),1630345386664,98.8518,64,main
3221,1403,23,loved it!,conjunction,correct,right,1630351317772,target,256,female,208,l,German,30,images/main/conjunction/30/target/C_30_T_8.jpg,Mon Aug 30 2021 18:43:06 GMT+0100 (BST),1630345386664,98.8518,1,main
3221,1124,23,loved it!,conjunction,correct,right,1630351317772,no target,256,female,182,s,German,5,images/main/conjunction/5/no_target/C_5_NT_6.jpg,Mon Aug 30 2021 18:43:06 GMT+0100 (BST),1630345386664,98.8518,2,main
3221,1245,23,loved it!,conjunction,correct,right,1630351317772,no target,256,female,196,s,German,15,images/main/conjunction/15/no_target/C_15_NT_4.jpg,Mon Aug 30 2021 18:43:06 GMT+0100 (BST),1630345386664,98.8518,3,main
3221,602,23,loved it!,conjunction,correct,right,1630351317772,target,256,female,154,l,German,1,images/main/conjunction/1/target/C_1_T_2.jpg,Mon Aug 30 2021 18:43:06 GMT+0100 (BST),1630345386664,98.8518,4,main
3221,706,23,loved it!,conjunction,correct,right,1630351317772,target,256,female,191,l,German,15,images/main/conjunction/15/target/C_15_T_7.jpg,Mon Aug 30 2021 18:43:06 GMT+0100 (BST),1630345386664,98.8518,5,main
3221,991,23,loved it!,conjunction,correct,right,1630351317772,no target,256,female,193,s,German,15,images/main/conjunction/15/no_target/C_15_NT_1.jpg,Mon Aug 30 2021 18:43:06 GMT+0100 (BST),1630345386664,98.8518,6,main
3221,933,23,loved it!,conjunction,correct,right,1630351317772,no target,256,female,179,s,German,5,images/main/conjunction/5/no_target/C_5_NT_3.jpg,Mon Aug 30 2021 18:43:06 GMT+0100 (BST),1630345386664,98.8518,7,main
3221,1306,23,loved it!,conjunction,correct,right,1630351317772,target,256,female,188,l,German,15,images/main/conjunction/15/target/C_15_T_4.jpg,Mon Aug 30 2021 18:43:06 GMT+0100 (BST),1630345386664,98.8518,8,main
3221,1461,23,loved it!,conjunction,correct,right,1630351317772,no target,256,female,216,s,German,30,images/main/conjunction/30/no_target/C_30_NT_8.jpg,Mon Aug 30 2021 18:43:06 GMT+0100 (BST),1630345386664,98.8518,9,main
3221,955,23,loved it!,conjunction,correct,right,1630351317772,target,256,female,207,l,German,30,images/main/conjunction/30/target/C_30_T_7.jpg,Mon Aug 30 2021 18:43:06 GMT+0100 (BST),1630345386664,98.8518,10,main
3221,1460,23,loved it!,conjunction,correct,right,1630351317772,no target,256,female,164,s,German,1,images/main/conjunction/1/no_target/C_1_NT_4.jpg,Mon Aug 30 2021 18:43:06 GMT+0100 (BST),1630345386664,98.8518,11,main
3221,1987,23,loved it!,conjunction,correct,right,1630351317772,no target,256,female,200,s,German,15,images/main/conjunction/15/no_target/C_15_NT_8.jpg,Mon Aug 30 2021 18:43:06 GMT+0100 (BST),1630345386664,98.8518,12,main
3221,1485,23,loved it!,conjunction,correct,right,1630351317772,target,256,female,192,l,German,15,images/main/conjunction/15/target/C_15_T_8.jpg,Mon Aug 30 2021 18:43:06 GMT+0100 (BST),1630345386664,98.8518,13,main
3221,1838,23,loved it!,conjunction,correct,right,1630351317772,no target,256,female,215,s,German,30,images/main/conjunction/30/no_target/C_30_NT_7.jpg,Mon Aug 30 2021 18:43:06 GMT+0100 (BST),1630345386664,98.8518,14,main
3221,1231,23,loved it!,conjunction,correct,right,1630351317772,no target,256,female,161,s,German,1,images/main/conjunction/1/no_target/C_1_NT_1.jpg,Mon Aug 30 2021 18:43:06 GMT+0100 (BST),1630345386664,98.8518,15,main
3221,812,23,loved it!,conjunction,correct,right,1630351317772,target,256,female,189,l,German,15,images/main/conjunction/15/target/C_15_T_5.jpg,Mon Aug 30 2021 18:43:06 GMT+0100 (BST),1630345386664,98.8518,16,main
3221,1564,23,loved it!,conjunction,correct,right,1630351317772,no target,256,female,210,s,German,30,images/main/conjunction/30/no_target/C_30_NT_2.jpg,Mon Aug 30 2021 18:43:06 GMT+0100 (BST),1630345386664,98.8518,17,main
3221,1690,23,loved it!,conjunction,correct,right,1630351317772,no target,256,female,212,s,German,30,images/main/conjunction/30/no_target/C_30_NT_4.jpg,Mon Aug 30 2021 18:43:06 GMT+0100 (BST),1630345386664,98.8518,18,main
3221,1611,23,loved it!,conjunction,correct,right,1630351317772,no target,256,female,214,s,German,30,images/main/conjunction/30/no_target/C_30_NT_6.jpg,Mon Aug 30 2021 18:43:06 GMT+0100 (BST),1630345386664,98.8518,19,main
3221,1104,23,loved it!,conjunction,correct,right,1630351317772,target,256,female,176,l,German,5,images/main/conjunction/5/target/C_5_T_8.jpg,Mon Aug 30 2021 18:43:06 GMT+0100 (BST),1630345386664,98.8518,20,main
3221,941,23,loved it!,conjunction,correct,right,1630351317772,target,256,female,173,l,German,5,images/main/conjunction/5/target/C_5_T_5.jpg,Mon Aug 30 2021 18:43:06 GMT+0100 (BST),1630345386664,98.8518,21,main
3221,874,23,loved it!,conjunction,correct,right,1630351317772,no target,256,female,177,s,German,5,images/main/conjunction/5/no_target/C_5_NT_1.jpg,Mon Aug 30 2021 18:43:06 GMT+0100 (BST),1630345386664,98.8518,22,main
3221,951,23,loved it!,conjunction,correct,right,1630351317772,target,256,female,203,l,German,30,images/main/conjunction/30/target/C_30_T_3.jpg,Mon Aug 30 2021 18:43:06 GMT+0100 (BST),1630345386664,98.8518,23,main
3221,1149,23,loved it!,conjunction,correct,right,1630351317772,target,256,female,174,l,German,5,images/main/conjunction/5/target/C_5_T_6.jpg,Mon Aug 30 2021 18:43:06 GMT+0100 (BST),1630345386664,98.8518,24,main
3221,1037,23,loved it!,conjunction,incorrect,right,1630351317772,no target,256,female,166,l,German,1,images/main/conjunction/1/no_target/C_1_NT_6.jpg,Mon Aug 30 2021 18:43:06 GMT+0100 (BST),1630345386664,98.8518,25,main
3221,1738,23,loved it!,conjunction,correct,right,1630351317772,target,256,female,206,l,German,30,images/main/conjunction/30/target/C_30_T_6.jpg,Mon Aug 30 2021 18:43:06 GMT+0100 (BST),1630345386664,98.8518,26,main
3221,1055,23,loved it!,conjunction,correct,right,1630351317772,no target,256,female,168,s,German,1,images/main/conjunction/1/no_target/C_1_NT_8.jpg,Mon Aug 30 2021 18:43:06 GMT+0100 (BST),1630345386664,98.8518,27,main
3221,1199,23,loved it!,conjunction,correct,right,1630351317772,no target,256,female,184,s,German,5,images/main/conjunction/5/no_target/C_5_NT_8.jpg,Mon Aug 30 2021 18:43:06 GMT+0100 (BST),1630345386664,98.8518,28,main
3221,1080,23,loved it!,conjunction,correct,right,1630351317772,target,256,female,186,l,German,15,images/main/conjunction/15/target/C_15_T_2.jpg,Mon Aug 30 2021 18:43:06 GMT+0100 (BST),1630345386664,98.8518,29,main
3221,798,23,loved it!,conjunction,correct,right,1630351317772,no target,256,female,162,s,German,1,images/main/conjunction/1/no_target/C_1_NT_2.jpg,Mon Aug 30 2021 18:43:06 GMT+0100 (BST),1630345386664,98.8518,30,main
3221,1207,23,loved it!,conjunction,correct,right,1630351317772,no target,256,female,195,s,German,15,images/main/conjunction/15/no_target/C_15_NT_3.jpg,Mon Aug 30 2021 18:43:06 GMT+0100 (BST),1630345386664,98.8518,31,main
3221,803,23,loved it!,conjunction,incorrect,right,1630351317772,target,256,female,153,s,German,1,images/main/conjunction/1/target/C_1_T_1.jpg,Mon Aug 30 2021 18:43:06 GMT+0100 (BST),1630345386664,98.8518,32,main
3221,924,23,loved it!,conjunction,correct,right,1630351317772,target,256,female,171,l,German,5,images/main/conjunction/5/target/C_5_T_3.jpg,Mon Aug 30 2021 18:43:06 GMT+0100 (BST),1630345386664,98.8518,33,main
3221,1141,23,loved it!,conjunction,correct,right,1630351317772,target,256,female,159,l,German,1,images/main/conjunction/1/target/C_1_T_7.jpg,Mon Aug 30 2021 18:43:06 GMT+0100 (BST),1630345386664,98.8518,34,main
3221,1630,23,loved it!,conjunction,correct,right,1630351317772,target,256,female,157,l,German,1,images/main/conjunction/1/target/C_1_T_5.jpg,Mon Aug 30 2021 18:43:06 GMT+0100 (BST),1630345386664,98.8518,35,main
3221,2876,23,loved it!,conjunction,correct,right,1630351317772,no target,256,female,211,s,German,30,images/main/conjunction/30/no_target/C_30_NT_3.jpg,Mon Aug 30 2021 18:43:06 GMT+0100 (BST),1630345386664,98.8518,36,main
3221,978,23,loved it!,conjunction,correct,right,1630351317772,target,256,female,170,l,German,5,images/main/conjunction/5/target/C_5_T_2.jpg,Mon Aug 30 2021 18:43:06 GMT+0100 (BST),1630345386664,98.8518,37,main
3221,2064,23,loved it!,conjunction,incorrect,right,1630351317772,target,256,female,202,s,German,30,images/main/conjunction/30/target/C_30_T_2.jpg,Mon Aug 30 2021 18:43:06 GMT+0100 (BST),1630345386664,98.8518,38,main
3221,895,23,loved it!,conjunction,correct,right,1630351317772,target,256,female,201,l,German,30,images/main/conjunction/30/target/C_30_T_1.jpg,Mon Aug 30 2021 18:43:06 GMT+0100 (BST),1630345386664,98.8518,39,main
3221,1619,23,loved it!,conjunction,correct,right,1630351317772,no target,256,female,197,s,German,15,images/main/conjunction/15/no_target/C_15_NT_5.jpg,Mon Aug 30 2021 18:43:06 GMT+0100 (BST),1630345386664,98.8518,40,main
3221,2326,23,loved it!,conjunction,correct,right,1630351317772,no target,256,female,209,s,German,30,images/main/conjunction/30/no_target/C_30_NT_1.jpg,Mon Aug 30 2021 18:43:06 GMT+0100 (BST),1630345386664,98.8518,41,main
3221,1392,23,loved it!,conjunction,correct,right,1630351317772,target,256,female,205,l,German,30,images/main/conjunction/30/target/C_30_T_5.jpg,Mon Aug 30 2021 18:43:06 GMT+0100 (BST),1630345386664,98.8518,42,main
3221,868,23,loved it!,conjunction,correct,right,1630351317772,target,256,female,156,l,German,1,images/main/conjunction/1/target/C_1_T_4.jpg,Mon Aug 30 2021 18:43:06 GMT+0100 (BST),1630345386664,98.8518,43,main
3221,747,23,loved it!,conjunction,correct,right,1630351317772,target,256,female,160,l,German,1,images/main/conjunction/1/target/C_1_T_8.jpg,Mon Aug 30 2021 18:43:06 GMT+0100 (BST),1630345386664,98.8518,44,main
3221,1128,23,loved it!,conjunction,correct,right,1630351317772,no target,256,female,167,s,German,1,images/main/conjunction/1/no_target/C_1_NT_7.jpg,Mon Aug 30 2021 18:43:06 GMT+0100 (BST),1630345386664,98.8518,45,main
3221,1256,23,loved it!,conjunction,correct,right,1630351317772,target,256,female,169,l,German,5,images/main/conjunction/5/target/C_5_T_1.jpg,Mon Aug 30 2021 18:43:06 GMT+0100 (BST),1630345386664,98.8518,46,main
3221,1308,23,loved it!,conjunction,correct,right,1630351317772,no target,256,female,180,s,German,5,images/main/conjunction/5/no_target/C_5_NT_4.jpg,Mon Aug 30 2021 18:43:06 GMT+0100 (BST),1630345386664,98.8518,47,main
3221,1989,23,loved it!,conjunction,incorrect,right,1630351317772,no target,256,female,163,l,German,1,images/main/conjunction/1/no_target/C_1_NT_3.jpg,Mon Aug 30 2021 18:43:06 GMT+0100 (BST),1630345386664,98.8518,48,main
3221,2669,23,loved it!,conjunction,correct,right,1630351317772,no target,256,female,213,s,German,30,images/main/conjunction/30/no_target/C_30_NT_5.jpg,Mon Aug 30 2021 18:43:06 GMT+0100 (BST),1630345386664,98.8518,49,main
3221,1112,23,loved it!,conjunction,correct,right,1630351317772,target,256,female,190,l,German,15,images/main/conjunction/15/target/C_15_T_6.jpg,Mon Aug 30 2021 18:43:06 GMT+0100 (BST),1630345386664,98.8518,50,main
3221,1309,23,loved it!,conjunction,correct,right,1630351317772,no target,256,female,183,s,German,5,images/main/conjunction/5/no_target/C_5_NT_7.jpg,Mon Aug 30 2021 18:43:06 GMT+0100 (BST),1630345386664,98.8518,51,main
3221,1107,23,loved it!,conjunction,correct,right,1630351317772,target,256,female,158,l,German,1,images/main/conjunction/1/target/C_1_T_6.jpg,Mon Aug 30 2021 18:43:06 GMT+0100 (BST),1630345386664,98.8518,52,main
3221,1254,23,loved it!,conjunction,correct,right,1630351317772,target,256,female,175,l,German,5,images/main/conjunction/5/target/C_5_T_7.jpg,Mon Aug 30 2021 18:43:06 GMT+0100 (BST),1630345386664,98.8518,53,main
3221,1398,23,loved it!,conjunction,correct,right,1630351317772,no target,256,female,199,s,German,15,images/main/conjunction/15/no_target/C_15_NT_7.jpg,Mon Aug 30 2021 18:43:06 GMT+0100 (BST),1630345386664,98.8518,54,main
3221,1251,23,loved it!,conjunction,correct,right,1630351317772,no target,256,female,198,s,German,15,images/main/conjunction/15/no_target/C_15_NT_6.jpg,Mon Aug 30 2021 18:43:06 GMT+0100 (BST),1630345386664,98.8518,55,main
3221,1516,23,loved it!,conjunction,correct,right,1630351317772,no target,256,female,194,s,German,15,images/main/conjunction/15/no_target/C_15_NT_2.jpg,Mon Aug 30 2021 18:43:06 GMT+0100 (BST),1630345386664,98.8518,56,main
3221,1268,23,loved it!,conjunction,correct,right,1630351317772,no target,256,female,181,s,German,5,images/main/conjunction/5/no_target/C_5_NT_5.jpg,Mon Aug 30 2021 18:43:06 GMT+0100 (BST),1630345386664,98.8518,57,main
3221,993,23,loved it!,conjunction,correct,right,1630351317772,target,256,female,155,l,German,1,images/main/conjunction/1/target/C_1_T_3.jpg,Mon Aug 30 2021 18:43:06 GMT+0100 (BST),1630345386664,98.8518,58,main
3221,1259,23,loved it!,conjunction,correct,right,1630351317772,target,256,female,172,l,German,5,images/main/conjunction/5/target/C_5_T_4.jpg,Mon Aug 30 2021 18:43:06 GMT+0100 (BST),1630345386664,98.8518,59,main
3221,1307,23,loved it!,conjunction,correct,right,1630351317772,target,256,female,185,l,German,15,images/main/conjunction/15/target/C_15_T_1.jpg,Mon Aug 30 2021 18:43:06 GMT+0100 (BST),1630345386664,98.8518,60,main
3221,1115,23,loved it!,conjunction,correct,right,1630351317772,no target,256,female,178,s,German,5,images/main/conjunction/5/no_target/C_5_NT_2.jpg,Mon Aug 30 2021 18:43:06 GMT+0100 (BST),1630345386664,98.8518,61,main
3221,956,23,loved it!,conjunction,correct,right,1630351317772,target,256,female,187,l,German,15,images/main/conjunction/15/target/C_15_T_3.jpg,Mon Aug 30 2021 18:43:06 GMT+0100 (BST),1630345386664,98.8518,62,main
3221,3800,23,loved it!,conjunction,correct,right,1630351317772,target,256,female,204,l,German,30,images/main/conjunction/30/target/C_30_T_4.jpg,Mon Aug 30 2021 18:43:06 GMT+0100 (BST),1630345386664,98.8518,63,main
3221,1755,23,loved it!,conjunction,correct,right,1630351317772,no target,256,female,165,s,German,1,images/main/conjunction/1/no_target/C_1_NT_5.jpg,Mon Aug 30 2021 18:43:06 GMT+0100 (BST),1630345386664,98.8518,64,main
3221,1945,23,loved it!,shape,correct,right,1630351317772,no target,256,female,39,s,German,1,images/main/feature/1/no_target/F_C_1_NT_7.jpg,Mon Aug 30 2021 18:43:06 GMT+0100 (BST),1630345386664,98.8518,1,main
3221,1245,23,loved it!,shape,correct,right,1630351317772,no target,256,female,72,s,German,15,images/main/feature/15/no_target/F_C_15_NT_8.jpg,Mon Aug 30 2021 18:43:06 GMT+0100 (BST),1630345386664,98.8518,2,main
3221,910,23,loved it!,color,correct,right,1630351317772,target,256,female,61,l,German,15,images/main/feature/15/target/F_C_15_T_5_Xblue.jpg,Mon Aug 30 2021 18:43:06 GMT+0100 (BST),1630345386664,98.8518,3,main
3221,853,23,loved it!,shape,correct,right,1630351317772,no target,256,female,53,s,German,5,images/main/feature/5/no_target/F_C_5_NT_5.jpg,Mon Aug 30 2021 18:43:06 GMT+0100 (BST),1630345386664,98.8518,4,main
3221,907,23,loved it!,shape,correct,right,1630351317772,no target,256,female,69,s,German,15,images/main/feature/15/no_target/F_C_15_NT_5.jpg,Mon Aug 30 2021 18:43:06 GMT+0100 (BST),1630345386664,98.8518,5,main
3221,902,23,loved it!,color,correct,right,1630351317772,no target,256,female,66,s,German,15,images/main/feature/15/no_target/F_C_15_NT_2.jpg,Mon Aug 30 2021 18:43:06 GMT+0100 (BST),1630345386664,98.8518,6,main
3221,1374,23,loved it!,shape,correct,right,1630351317772,target,256,female,64,l,German,15,images/main/feature/15/target/F_C_15_T_8_Sgreen.jpg,Mon Aug 30 2021 18:43:06 GMT+0100 (BST),1630345386664,98.8518,7,main
3221,990,23,loved it!,shape,correct,right,1630351317772,target,256,female,79,l,German,30,images/main/feature/30/target/F_C_30_T_7_Sgreen.jpg,Mon Aug 30 2021 18:43:06 GMT+0100 (BST),1630345386664,98.8518,8,main
3221,1155,23,loved it!,color,correct,right,1630351317772,no target,256,female,51,s,German,5,images/main/feature/5/no_target/F_C_5_NT_3.jpg,Mon Aug 30 2021 18:43:06 GMT+0100 (BST),1630345386664,98.8518,9,main
3221,805,23,loved it!,color,correct,right,1630351317772,target,256,female,30,l,German,1,images/main/feature/1/target/F_C_1_T_6_XBlue.jpg,Mon Aug 30 2021 18:43:06 GMT+0100 (BST),1630345386664,98.8518,10,main
3221,1051,23,loved it!,shape,correct,right,1630351317772,no target,256,female,87,s,German,30,images/main/feature/30/no_target/F_C_30_NT_7.jpg,Mon Aug 30 2021 18:43:06 GMT+0100 (BST),1630345386664,98.8518,11,main
3221,1028,23,loved it!,color,incorrect,right,1630351317772,target,256,female,25,s,German,1,images/main/feature/1/target/F_C_1_T_1_Tblue.jpg,Mon Aug 30 2021 18:43:06 GMT+0100 (BST),1630345386664,98.8518,12,main
3221,976,23,loved it!,shape,correct,right,1630351317772,target,256,female,76,l,German,30,images/main/feature/30/target/F_C_30_T_4_Sbrown.jpg,Mon Aug 30 2021 18:43:06 GMT+0100 (BST),1630345386664,98.8518,13,main
3221,3796,23,loved it!,color,correct,right,1630351317772,no target,256,female,49,s,German,5,images/main/feature/5/no_target/F_C_5_NT_1.jpg,Mon Aug 30 2021 18:43:06 GMT+0100 (BST),1630345386664,98.8518,14,main
3221,1337,23,loved it!,shape,correct,right,1630351317772,target,256,female,28,l,German,1,images/main/feature/1/target/F_C_1_T_4_Sbrown.jpg,Mon Aug 30 2021 18:43:06 GMT+0100 (BST),1630345386664,98.8518,15,main
3221,1240,23,loved it!,shape,correct,right,1630351317772,target,256,female,63,l,German,15,images/main/feature/15/target/F_C_15_T_7_Sgreen.jpg,Mon Aug 30 2021 18:43:06 GMT+0100 (BST),1630345386664,98.8518,16,main
3221,2484,23,loved it!,color,correct,right,1630351317772,target,256,female,73,l,German,30,images/main/feature/30/target/F_C_30_T_1_Tblue.jpg,Mon Aug 30 2021 18:43:06 GMT+0100 (BST),1630345386664,98.8518,17,main
3221,1944,23,loved it!,shape,correct,right,1630351317772,no target,256,female,86,s,German,30,images/main/feature/30/no_target/F_C_30_NT_6.jpg,Mon Aug 30 2021 18:43:06 GMT+0100 (BST),1630345386664,98.8518,18,main
3221,1528,23,loved it!,color,correct,right,1630351317772,no target,256,female,52,s,German,5,images/main/feature/5/no_target/F_C_5_NT_4.jpg,Mon Aug 30 2021 18:43:06 GMT+0100 (BST),1630345386664,98.8518,19,main
3221,924,23,loved it!,shape,incorrect,right,1630351317772,no target,256,female,37,l,German,1,images/main/feature/1/no_target/F_C_1_NT_5.jpg,Mon Aug 30 2021 18:43:06 GMT+0100 (BST),1630345386664,98.8518,20,main
3221,985,23,loved it!,color,correct,right,1630351317772,target,256,female,45,l,German,5,images/main/feature/5/target/F_C_5_T_5_Xblue.jpg,Mon Aug 30 2021 18:43:06 GMT+0100 (BST),1630345386664,98.8518,21,main
3221,1091,23,loved it!,shape,correct,right,1630351317772,target,256,female,44,l,German,5,images/main/feature/5/target/F_C_5_T_4_Sbrown.jpg,Mon Aug 30 2021 18:43:06 GMT+0100 (BST),1630345386664,98.8518,22,main
3221,862,23,loved it!,shape,correct,right,1630351317772,target,256,female,27,l,German,1,images/main/feature/1/target/F_C_1_T_3_Sbrown.jpg,Mon Aug 30 2021 18:43:06 GMT+0100 (BST),1630345386664,98.8518,23,main
3221,1114,23,loved it!,shape,correct,right,1630351317772,target,256,female,75,l,German,30,images/main/feature/30/target/F_C_30_T_3_Sbrown.jpg,Mon Aug 30 2021 18:43:06 GMT+0100 (BST),1630345386664,98.8518,24,main
3221,1245,23,loved it!,color,correct,right,1630351317772,no target,256,female,36,s,German,1,images/main/feature/1/no_target/F_C_1_NT_4.jpg,Mon Aug 30 2021 18:43:06 GMT+0100 (BST),1630345386664,98.8518,25,main
3221,1474,23,loved it!,shape,correct,right,1630351317772,target,256,female,80,l,German,30,images/main/feature/30/target/F_C_30_T_8_Sgreen.jpg,Mon Aug 30 2021 18:43:06 GMT+0100 (BST),1630345386664,98.8518,26,main
3221,1270,23,loved it!,color,correct,right,1630351317772,target,256,female,42,l,German,5,images/main/feature/5/target/F_C_5_T_2_Tblue.jpg,Mon Aug 30 2021 18:43:06 GMT+0100 (BST),1630345386664,98.8518,27,main
3221,1059,23,loved it!,color,correct,right,1630351317772,target,256,female,77,l,German,30,images/main/feature/30/target/F_C_30_T_5_Xblue.jpg,Mon Aug 30 2021 18:43:06 GMT+0100 (BST),1630345386664,98.8518,28,main
3221,1548,23,loved it!,shape,correct,right,1630351317772,no target,256,female,88,s,German,30,images/main/feature/30/no_target/F_C_30_NT_8.jpg,Mon Aug 30 2021 18:43:06 GMT+0100 (BST),1630345386664,98.8518,29,main
3221,2539,23,loved it!,shape,correct,right,1630351317772,no target,256,female,40,s,German,1,images/main/feature/1/no_target/F_C_1_NT_8.jpg,Mon Aug 30 2021 18:43:06 GMT+0100 (BST),1630345386664,98.8518,30,main
3221,652,23,loved it!,color,correct,right,1630351317772,no target,256,female,84,s,German,30,images/main/feature/30/no_target/F_C_30_NT_4.jpg,Mon Aug 30 2021 18:43:06 GMT+0100 (BST),1630345386664,98.8518,31,main
3221,820,23,loved it!,color,correct,right,1630351317772,target,256,female,62,l,German,15,images/main/feature/15/target/F_C_15_T_6_Xblue.jpg,Mon Aug 30 2021 18:43:06 GMT+0100 (BST),1630345386664,98.8518,32,main
3221,1549,23,loved it!,color,incorrect,right,1630351317772,no target,256,female,34,l,German,1,images/main/feature/1/no_target/F_C_1_NT_2.jpg,Mon Aug 30 2021 18:43:06 GMT+0100 (BST),1630345386664,98.8518,33,main
3221,1321,23,loved it!,color,correct,right,1630351317772,no target,256,female,35,s,German,1,images/main/feature/1/no_target/F_C_1_NT_3.jpg,Mon Aug 30 2021 18:43:06 GMT+0100 (BST),1630345386664,98.8518,34,main
3221,1171,23,loved it!,color,correct,right,1630351317772,no target,256,female,50,s,German,5,images/main/feature/5/no_target/F_C_5_NT_2.jpg,Mon Aug 30 2021 18:43:06 GMT+0100 (BST),1630345386664,98.8518,35,main
3221,1434,23,loved it!,color,correct,right,1630351317772,no target,256,female,65,s,German,15,images/main/feature/15/no_target/F_C_15_NT_1.jpg,Mon Aug 30 2021 18:43:06 GMT+0100 (BST),1630345386664,98.8518,36,main
3221,1195,23,loved it!,color,correct,right,1630351317772,target,256,female,41,l,German,5,images/main/feature/5/target/F_C_5_T_1_Tblue.jpg,Mon Aug 30 2021 18:43:06 GMT+0100 (BST),1630345386664,98.8518,37,main
3221,1404,23,loved it!,color,correct,right,1630351317772,no target,256,female,83,s,German,30,images/main/feature/30/no_target/F_C_30_NT_3.jpg,Mon Aug 30 2021 18:43:06 GMT+0100 (BST),1630345386664,98.8518,38,main
3221,1049,23,loved it!,shape,correct,right,1630351317772,target,256,female,48,l,German,5,images/main/feature/5/target/F_C_5_T_8_Sgreen.jpg,Mon Aug 30 2021 18:43:06 GMT+0100 (BST),1630345386664,98.8518,39,main
3221,999,23,loved it!,color,correct,right,1630351317772,target,256,female,58,l,German,15,images/main/feature/15/target/F_C_15_T_2_Tblue.jpg,Mon Aug 30 2021 18:43:06 GMT+0100 (BST),1630345386664,98.8518,40,main
3221,1648,23,loved it!,color,correct,right,1630351317772,no target,256,female,68,s,German,15,images/main/feature/15/no_target/F_C_15_NT_4.jpg,Mon Aug 30 2021 18:43:06 GMT+0100 (BST),1630345386664,98.8518,41,main
3221,1107,23,loved it!,shape,correct,right,1630351317772,target,256,female,59,l,German,15,images/main/feature/15/target/F_C_15_T_3_Sbrown.jpg,Mon Aug 30 2021 18:43:06 GMT+0100 (BST),1630345386664,98.8518,42,main
3221,2790,23,loved it!,color,correct,right,1630351317772,no target,256,female,82,s,German,30,images/main/feature/30/no_target/F_C_30_NT_2.jpg,Mon Aug 30 2021 18:43:06 GMT+0100 (BST),1630345386664,98.8518,43,main
3221,1133,23,loved it!,color,correct,right,1630351317772,target,256,female,29,l,German,1,images/main/feature/1/target/F_C_1_T_5_XBlue.jpg,Mon Aug 30 2021 18:43:06 GMT+0100 (BST),1630345386664,98.8518,44,main
3221,1805,23,loved it!,shape,correct,right,1630351317772,no target,256,female,54,s,German,5,images/main/feature/5/no_target/F_C_5_NT_6.jpg,Mon Aug 30 2021 18:43:06 GMT+0100 (BST),1630345386664,98.8518,45,main
3221,1353,23,loved it!,shape,correct,right,1630351317772,target,256,female,60,l,German,15,images/main/feature/15/target/F_C_15_T_4_Sbrown.jpg,Mon Aug 30 2021 18:43:06 GMT+0100 (BST),1630345386664,98.8518,46,main
3221,1174,23,loved it!,shape,correct,right,1630351317772,no target,256,female,55,s,German,5,images/main/feature/5/no_target/F_C_5_NT_7.jpg,Mon Aug 30 2021 18:43:06 GMT+0100 (BST),1630345386664,98.8518,47,main
3221,1091,23,loved it!,color,correct,right,1630351317772,target,256,female,46,l,German,5,images/main/feature/5/target/F_C_5_T_6_Xblue.jpg,Mon Aug 30 2021 18:43:06 GMT+0100 (BST),1630345386664,98.8518,48,main
3221,1101,23,loved it!,color,correct,right,1630351317772,target,256,female,26,l,German,1,images/main/feature/1/target/F_C_1_T_2_Tblue.jpg,Mon Aug 30 2021 18:43:06 GMT+0100 (BST),1630345386664,98.8518,49,main
3221,1749,23,loved it!,shape,correct,right,1630351317772,target,256,female,32,l,German,1,images/main/feature/1/target/F_C_1_T_8_Sgreen.jpg,Mon Aug 30 2021 18:43:06 GMT+0100 (BST),1630345386664,98.8518,50,main
3221,942,23,loved it!,color,correct,right,1630351317772,target,256,female,78,l,German,30,images/main/feature/30/target/F_C_30_T_6_Xblue.jpg,Mon Aug 30 2021 18:43:06 GMT+0100 (BST),1630345386664,98.8518,51,main
3221,1440,23,loved it!,shape,correct,right,1630351317772,no target,256,female,85,s,German,30,images/main/feature/30/no_target/F_C_30_NT_5.jpg,Mon Aug 30 2021 18:43:06 GMT+0100 (BST),1630345386664,98.8518,52,main
3221,1403,23,loved it!,color,correct,right,1630351317772,target,256,female,57,l,German,15,images/main/feature/15/target/F_C_15_T_1_Tblue.jpg,Mon Aug 30 2021 18:43:06 GMT+0100 (BST),1630345386664,98.8518,53,main
3221,2675,23,loved it!,shape,correct,right,1630351317772,target,256,female,43,l,German,5,images/main/feature/5/target/F_C_5_T_3_Sbrown.jpg,Mon Aug 30 2021 18:43:06 GMT+0100 (BST),1630345386664,98.8518,54,main
3221,1285,23,loved it!,color,correct,right,1630351317772,no target,256,female,33,s,German,1,images/main/feature/1/no_target/F_C_1_NT_1.jpg,Mon Aug 30 2021 18:43:06 GMT+0100 (BST),1630345386664,98.8518,55,main
3221,1103,23,loved it!,color,correct,right,1630351317772,no target,256,female,67,s,German,15,images/main/feature/15/no_target/F_C_15_NT_3.jpg,Mon Aug 30 2021 18:43:06 GMT+0100 (BST),1630345386664,98.8518,56,main
3221,1088,23,loved it!,shape,correct,right,1630351317772,no target,256,female,56,s,German,5,images/main/feature/5/no_target/F_C_5_NT_8.jpg,Mon Aug 30 2021 18:43:06 GMT+0100 (BST),1630345386664,98.8518,57,main
3221,1151,23,loved it!,shape,correct,right,1630351317772,target,256,female,31,l,German,1,images/main/feature/1/target/F_C_1_T_7_Sgreen.jpg,Mon Aug 30 2021 18:43:06 GMT+0100 (BST),1630345386664,98.8518,58,main
3221,1684,23,loved it!,color,correct,right,1630351317772,target,256,female,74,l,German,30,images/main/feature/30/target/F_C_30_T_2_Tblue.jpg,Mon Aug 30 2021 18:43:06 GMT+0100 (BST),1630345386664,98.8518,59,main
3221,1450,23,loved it!,shape,correct,right,1630351317772,no target,256,female,38,s,German,1,images/main/feature/1/no_target/F_C_1_NT_6.jpg,Mon Aug 30 2021 18:43:06 GMT+0100 (BST),1630345386664,98.8518,60,main
3221,1097,23,loved it!,shape,correct,right,1630351317772,no target,256,female,70,s,German,15,images/main/feature/15/no_target/F_C_15_NT_6.jpg,Mon Aug 30 2021 18:43:06 GMT+0100 (BST),1630345386664,98.8518,61,main
3221,1234,23,loved it!,shape,correct,right,1630351317772,no target,256,female,71,s,German,15,images/main/feature/15/no_target/F_C_15_NT_7.jpg,Mon Aug 30 2021 18:43:06 GMT+0100 (BST),1630345386664,98.8518,62,main
3221,1041,23,loved it!,shape,correct,right,1630351317772,target,256,female,47,l,German,5,images/main/feature/5/target/F_C_5_T_7_Sgreen.jpg,Mon Aug 30 2021 18:43:06 GMT+0100 (BST),1630345386664,98.8518,63,main
3221,1278,23,loved it!,color,correct,right,1630351317772,no target,256,female,81,s,German,30,images/main/feature/30/no_target/F_C_30_NT_1.jpg,Mon Aug 30 2021 18:43:06 GMT+0100 (BST),1630345386664,98.8518,64,main
3221,1219,23,loved it!,conjunction,correct,right,1630351317772,no target,256,female,183,s,German,5,images/main/conjunction/5/no_target/C_5_NT_7.jpg,Mon Aug 30 2021 18:43:06 GMT+0100 (BST),1630345386664,98.8518,1,main
3221,724,23,loved it!,conjunction,correct,right,1630351317772,target,256,female,159,l,German,1,images/main/conjunction/1/target/C_1_T_7.jpg,Mon Aug 30 2021 18:43:06 GMT+0100 (BST),1630345386664,98.8518,2,main
3221,1170,23,loved it!,conjunction,correct,right,1630351317772,no target,256,female,179,s,German,5,images/main/conjunction/5/no_target/C_5_NT_3.jpg,Mon Aug 30 2021 18:43:06 GMT+0100 (BST),1630345386664,98.8518,3,main
3221,620,23,loved it!,conjunction,correct,right,1630351317772,no target,256,female,168,s,German,1,images/main/conjunction/1/no_target/C_1_NT_8.jpg,Mon Aug 30 2021 18:43:06 GMT+0100 (BST),1630345386664,98.8518,4,main
3221,2181,23,loved it!,conjunction,correct,right,1630351317772,no target,256,female,213,s,German,30,images/main/conjunction/30/no_target/C_30_NT_5.jpg,Mon Aug 30 2021 18:43:06 GMT+0100 (BST),1630345386664,98.8518,5,main
3221,976,23,loved it!,conjunction,correct,right,1630351317772,target,256,female,156,l,German,1,images/main/conjunction/1/target/C_1_T_4.jpg,Mon Aug 30 2021 18:43:06 GMT+0100 (BST),1630345386664,98.8518,6,main
3221,645,23,loved it!,conjunction,correct,right,1630351317772,target,256,female,153,l,German,1,images/main/conjunction/1/target/C_1_T_1.jpg,Mon Aug 30 2021 18:43:06 GMT+0100 (BST),1630345386664,98.8518,7,main
3221,979,23,loved it!,conjunction,correct,right,1630351317772,no target,256,female,181,s,German,5,images/main/conjunction/5/no_target/C_5_NT_5.jpg,Mon Aug 30 2021 18:43:06 GMT+0100 (BST),1630345386664,98.8518,8,main
3221,1842,23,loved it!,conjunction,correct,right,1630351317772,target,256,female,191,l,German,15,images/main/conjunction/15/target/C_15_T_7.jpg,Mon Aug 30 2021 18:43:06 GMT+0100 (BST),1630345386664,98.8518,9,main
3221,1643,23,loved it!,conjunction,correct,right,1630351317772,target,256,female,204,l,German,30,images/main/conjunction/30/target/C_30_T_4.jpg,Mon Aug 30 2021 18:43:06 GMT+0100 (BST),1630345386664,98.8518,10,main
3221,2203,23,loved it!,conjunction,correct,right,1630351317772,no target,256,female,200,s,German,15,images/main/conjunction/15/no_target/C_15_NT_8.jpg,Mon Aug 30 2021 18:43:06 GMT+0100 (BST),1630345386664,98.8518,11,main
3221,8601,23,loved it!,conjunction,incorrect,right,1630351317772,no target,256,female,182,l,German,5,images/main/conjunction/5/no_target/C_5_NT_6.jpg,Mon Aug 30 2021 18:43:06 GMT+0100 (BST),1630345386664,98.8518,12,main
3221,1107,23,loved it!,conjunction,correct,right,1630351317772,target,256,female,160,l,German,1,images/main/conjunction/1/target/C_1_T_8.jpg,Mon Aug 30 2021 18:43:06 GMT+0100 (BST),1630345386664,98.8518,13,main
3221,1160,23,loved it!,conjunction,correct,right,1630351317772,no target,256,female,162,s,German,1,images/main/conjunction/1/no_target/C_1_NT_2.jpg,Mon Aug 30 2021 18:43:06 GMT+0100 (BST),1630345386664,98.8518,14,main
3221,1257,23,loved it!,conjunction,correct,right,1630351317772,target,256,female,192,l,German,15,images/main/conjunction/15/target/C_15_T_8.jpg,Mon Aug 30 2021 18:43:06 GMT+0100 (BST),1630345386664,98.8518,15,main
3221,1029,23,loved it!,conjunction,correct,right,1630351317772,target,256,female,157,l,German,1,images/main/conjunction/1/target/C_1_T_5.jpg,Mon Aug 30 2021 18:43:06 GMT+0100 (BST),1630345386664,98.8518,16,main
3221,2446,23,loved it!,conjunction,correct,right,1630351317772,target,256,female,207,l,German,30,images/main/conjunction/30/target/C_30_T_7.jpg,Mon Aug 30 2021 18:43:06 GMT+0100 (BST),1630345386664,98.8518,17,main
3221,1359,23,loved it!,conjunction,correct,right,1630351317772,target,256,female,171,l,German,5,images/main/conjunction/5/target/C_5_T_3.jpg,Mon Aug 30 2021 18:43:06 GMT+0100 (BST),1630345386664,98.8518,18,main
3221,914,23,loved it!,conjunction,correct,right,1630351317772,no target,256,female,177,s,German,5,images/main/conjunction/5/no_target/C_5_NT_1.jpg,Mon Aug 30 2021 18:43:06 GMT+0100 (BST),1630345386664,98.8518,19,main
3221,1255,23,loved it!,conjunction,correct,right,1630351317772,no target,256,female,178,s,German,5,images/main/conjunction/5/no_target/C_5_NT_2.jpg,Mon Aug 30 2021 18:43:06 GMT+0100 (BST),1630345386664,98.8518,20,main
3221,1063,23,loved it!,conjunction,correct,right,1630351317772,no target,256,female,165,s,German,1,images/main/conjunction/1/no_target/C_1_NT_5.jpg,Mon Aug 30 2021 18:43:06 GMT+0100 (BST),1630345386664,98.8518,21,main
3221,1109,23,loved it!,conjunction,correct,right,1630351317772,target,256,female,174,l,German,5,images/main/conjunction/5/target/C_5_T_6.jpg,Mon Aug 30 2021 18:43:06 GMT+0100 (BST),1630345386664,98.8518,22,main
3221,1395,23,loved it!,conjunction,correct,right,1630351317772,no target,256,female,180,s,German,5,images/main/conjunction/5/no_target/C_5_NT_4.jpg,Mon Aug 30 2021 18:43:06 GMT+0100 (BST),1630345386664,98.8518,23,main
3221,1071,23,loved it!,conjunction,correct,right,1630351317772,no target,256,female,193,s,German,15,images/main/conjunction/15/no_target/C_15_NT_1.jpg,Mon Aug 30 2021 18:43:06 GMT+0100 (BST),1630345386664,98.8518,24,main
3221,1085,23,loved it!,conjunction,correct,right,1630351317772,no target,256,female,163,s,German,1,images/main/conjunction/1/no_target/C_1_NT_3.jpg,Mon Aug 30 2021 18:43:06 GMT+0100 (BST),1630345386664,98.8518,25,main
3221,720,23,loved it!,conjunction,correct,right,1630351317772,no target,256,female,164,s,German,1,images/main/conjunction/1/no_target/C_1_NT_4.jpg,Mon Aug 30 2021 18:43:06 GMT+0100 (BST),1630345386664,98.8518,26,main
3221,2731,23,loved it!,conjunction,correct,right,1630351317772,no target,256,female,209,s,German,30,images/main/conjunction/30/no_target/C_30_NT_1.jpg,Mon Aug 30 2021 18:43:06 GMT+0100 (BST),1630345386664,98.8518,27,main
3221,985,23,loved it!,conjunction,correct,right,1630351317772,target,256,female,158,l,German,1,images/main/conjunction/1/target/C_1_T_6.jpg,Mon Aug 30 2021 18:43:06 GMT+0100 (BST),1630345386664,98.8518,28,main
3221,1159,23,loved it!,conjunction,correct,right,1630351317772,no target,256,female,166,s,German,1,images/main/conjunction/1/no_target/C_1_NT_6.jpg,Mon Aug 30 2021 18:43:06 GMT+0100 (BST),1630345386664,98.8518,29,main
3221,1083,23,loved it!,conjunction,correct,right,1630351317772,no target,256,female,167,s,German,1,images/main/conjunction/1/no_target/C_1_NT_7.jpg,Mon Aug 30 2021 18:43:06 GMT+0100 (BST),1630345386664,98.8518,30,main
3221,1513,23,loved it!,conjunction,correct,right,1630351317772,no target,256,female,210,s,German,30,images/main/conjunction/30/no_target/C_30_NT_2.jpg,Mon Aug 30 2021 18:43:06 GMT+0100 (BST),1630345386664,98.8518,31,main
3221,1300,23,loved it!,conjunction,correct,right,1630351317772,target,256,female,205,l,German,30,images/main/conjunction/30/target/C_30_T_5.jpg,Mon Aug 30 2021 18:43:06 GMT+0100 (BST),1630345386664,98.8518,32,main
3221,2269,23,loved it!,conjunction,correct,right,1630351317772,no target,256,female,211,s,German,30,images/main/conjunction/30/no_target/C_30_NT_3.jpg,Mon Aug 30 2021 18:43:06 GMT+0100 (BST),1630345386664,98.8518,33,main
3221,1745,23,loved it!,conjunction,correct,right,1630351317772,target,256,female,203,l,German,30,images/main/conjunction/30/target/C_30_T_3.jpg,Mon Aug 30 2021 18:43:06 GMT+0100 (BST),1630345386664,98.8518,34,main
3221,1396,23,loved it!,conjunction,correct,right,1630351317772,target,256,female,186,l,German,15,images/main/conjunction/15/target/C_15_T_2.jpg,Mon Aug 30 2021 18:43:06 GMT+0100 (BST),1630345386664,98.8518,35,main
3221,1385,23,loved it!,conjunction,correct,right,1630351317772,target,256,female,185,l,German,15,images/main/conjunction/15/target/C_15_T_1.jpg,Mon Aug 30 2021 18:43:06 GMT+0100 (BST),1630345386664,98.8518,36,main
3221,1025,23,loved it!,conjunction,correct,right,1630351317772,target,256,female,175,l,German,5,images/main/conjunction/5/target/C_5_T_7.jpg,Mon Aug 30 2021 18:43:06 GMT+0100 (BST),1630345386664,98.8518,37,main
3221,653,23,loved it!,conjunction,correct,right,1630351317772,target,256,female,187,l,German,15,images/main/conjunction/15/target/C_15_T_3.jpg,Mon Aug 30 2021 18:43:06 GMT+0100 (BST),1630345386664,98.8518,38,main
3221,1002,23,loved it!,conjunction,correct,right,1630351317772,target,256,female,155,l,German,1,images/main/conjunction/1/target/C_1_T_3.jpg,Mon Aug 30 2021 18:43:06 GMT+0100 (BST),1630345386664,98.8518,39,main
3221,1285,23,loved it!,conjunction,correct,right,1630351317772,target,256,female,188,l,German,15,images/main/conjunction/15/target/C_15_T_4.jpg,Mon Aug 30 2021 18:43:06 GMT+0100 (BST),1630345386664,98.8518,40,main
3221,634,23,loved it!,conjunction,correct,right,1630351317772,target,256,female,176,l,German,5,images/main/conjunction/5/target/C_5_T_8.jpg,Mon Aug 30 2021 18:43:06 GMT+0100 (BST),1630345386664,98.8518,41,main
3221,2383,23,loved it!,conjunction,correct,right,1630351317772,no target,256,female,216,s,German,30,images/main/conjunction/30/no_target/C_30_NT_8.jpg,Mon Aug 30 2021 18:43:06 GMT+0100 (BST),1630345386664,98.8518,42,main
3221,1688,23,loved it!,conjunction,correct,right,1630351317772,target,256,female,208,l,German,30,images/main/conjunction/30/target/C_30_T_8.jpg,Mon Aug 30 2021 18:43:06 GMT+0100 (BST),1630345386664,98.8518,43,main
3221,1339,23,loved it!,conjunction,correct,right,1630351317772,target,256,female,169,l,German,5,images/main/conjunction/5/target/C_5_T_1.jpg,Mon Aug 30 2021 18:43:06 GMT+0100 (BST),1630345386664,98.8518,44,main
3221,516,23,loved it!,conjunction,correct,right,1630351317772,target,256,female,154,l,German,1,images/main/conjunction/1/target/C_1_T_2.jpg,Mon Aug 30 2021 18:43:06 GMT+0100 (BST),1630345386664,98.8518,45,main
3221,630,23,loved it!,conjunction,correct,right,1630351317772,target,256,female,170,l,German,5,images/main/conjunction/5/target/C_5_T_2.jpg,Mon Aug 30 2021 18:43:06 GMT+0100 (BST),1630345386664,98.8518,46,main
3221,1653,23,loved it!,conjunction,correct,right,1630351317772,no target,256,female,197,s,German,15,images/main/conjunction/15/no_target/C_15_NT_5.jpg,Mon Aug 30 2021 18:43:06 GMT+0100 (BST),1630345386664,98.8518,47,main
3221,2671,23,loved it!,conjunction,correct,right,1630351317772,no target,256,female,199,s,German,15,images/main/conjunction/15/no_target/C_15_NT_7.jpg,Mon Aug 30 2021 18:43:06 GMT+0100 (BST),1630345386664,98.8518,48,main
3221,1328,23,loved it!,conjunction,correct,right,1630351317772,target,256,female,202,l,German,30,images/main/conjunction/30/target/C_30_T_2.jpg,Mon Aug 30 2021 18:43:06 GMT+0100 (BST),1630345386664,98.8518,49,main
3221,1938,23,loved it!,conjunction,correct,right,1630351317772,no target,256,female,212,s,German,30,images/main/conjunction/30/no_target/C_30_NT_4.jpg,Mon Aug 30 2021 18:43:06 GMT+0100 (BST),1630345386664,98.8518,50,main
3221,1052,23,loved it!,conjunction,correct,right,1630351317772,target,256,female,173,l,German,5,images/main/conjunction/5/target/C_5_T_5.jpg,Mon Aug 30 2021 18:43:06 GMT+0100 (BST),1630345386664,98.8518,51,main
3221,1457,23,loved it!,conjunction,correct,right,1630351317772,no target,256,female,215,s,German,30,images/main/conjunction/30/no_target/C_30_NT_7.jpg,Mon Aug 30 2021 18:43:06 GMT+0100 (BST),1630345386664,98.8518,52,main
3221,1697,23,loved it!,conjunction,correct,right,1630351317772,no target,256,female,198,s,German,15,images/main/conjunction/15/no_target/C_15_NT_6.jpg,Mon Aug 30 2021 18:43:06 GMT+0100 (BST),1630345386664,98.8518,53,main
3221,1258,23,loved it!,conjunction,correct,right,1630351317772,no target,256,female,214,s,German,30,images/main/conjunction/30/no_target/C_30_NT_6.jpg,Mon Aug 30 2021 18:43:06 GMT+0100 (BST),1630345386664,98.8518,54,main
3221,1080,23,loved it!,conjunction,correct,right,1630351317772,no target,256,female,184,s,German,5,images/main/conjunction/5/no_target/C_5_NT_8.jpg,Mon Aug 30 2021 18:43:06 GMT+0100 (BST),1630345386664,98.8518,55,main
3221,769,23,loved it!,conjunction,correct,right,1630351317772,target,256,female,189,l,German,15,images/main/conjunction/15/target/C_15_T_5.jpg,Mon Aug 30 2021 18:43:06 GMT+0100 (BST),1630345386664,98.8518,56,main
3221,1479,23,loved it!,conjunction,correct,right,1630351317772,no target,256,female,195,s,German,15,images/main/conjunction/15/no_target/C_15_NT_3.jpg,Mon Aug 30 2021 18:43:06 GMT+0100 (BST),1630345386664,98.8518,57,main
3221,1149,23,loved it!,conjunction,correct,right,1630351317772,no target,256,female,161,s,German,1,images/main/conjunction/1/no_target/C_1_NT_1.jpg,Mon Aug 30 2021 18:43:06 GMT+0100 (BST),1630345386664,98.8518,58,main
3221,1027,23,loved it!,conjunction,correct,right,1630351317772,target,256,female,190,l,German,15,images/main/conjunction/15/target/C_15_T_6.jpg,Mon Aug 30 2021 18:43:06 GMT+0100 (BST),1630345386664,98.8518,59,main
3221,1003,23,loved it!,conjunction,correct,right,1630351317772,target,256,female,172,l,German,5,images/main/conjunction/5/target/C_5_T_4.jpg,Mon Aug 30 2021 18:43:06 GMT+0100 (BST),1630345386664,98.8518,60,main
3221,2015,23,loved it!,conjunction,correct,right,1630351317772,target,256,female,201,l,German,30,images/main/conjunction/30/target/C_30_T_1.jpg,Mon Aug 30 2021 18:43:06 GMT+0100 (BST),1630345386664,98.8518,61,main
3221,2267,23,loved it!,conjunction,correct,right,1630351317772,no target,256,female,194,s,German,15,images/main/conjunction/15/no_target/C_15_NT_2.jpg,Mon Aug 30 2021 18:43:06 GMT+0100 (BST),1630345386664,98.8518,62,main
3221,5930,23,loved it!,conjunction,correct,right,1630351317772,target,256,female,206,l,German,30,images/main/conjunction/30/target/C_30_T_6.jpg,Mon Aug 30 2021 18:43:06 GMT+0100 (BST),1630345386664,98.8518,63,main
3221,1559,23,loved it!,conjunction,correct,right,1630351317772,no target,256,female,196,s,German,15,images/main/conjunction/15/no_target/C_15_NT_4.jpg,Mon Aug 30 2021 18:43:06 GMT+0100 (BST),1630345386664,98.8518,64,main
3221,1419,23,loved it!,shape,correct,right,1630351317772,target,256,female,79,l,German,30,images/main/feature/30/target/F_C_30_T_7_Sgreen.jpg,Mon Aug 30 2021 18:43:06 GMT+0100 (BST),1630345386664,98.8518,1,main
3221,1050,23,loved it!,shape,correct,right,1630351317772,target,256,female,75,l,German,30,images/main/feature/30/target/F_C_30_T_3_Sbrown.jpg,Mon Aug 30 2021 18:43:06 GMT+0100 (BST),1630345386664,98.8518,2,main
3221,870,23,loved it!,shape,correct,right,1630351317772,target,256,female,47,l,German,5,images/main/feature/5/target/F_C_5_T_7_Sgreen.jpg,Mon Aug 30 2021 18:43:06 GMT+0100 (BST),1630345386664,98.8518,3,main
3221,1262,23,loved it!,color,correct,right,1630351317772,target,256,female,42,l,German,5,images/main/feature/5/target/F_C_5_T_2_Tblue.jpg,Mon Aug 30 2021 18:43:06 GMT+0100 (BST),1630345386664,98.8518,4,main
3221,2841,23,loved it!,shape,correct,right,1630351317772,no target,256,female,88,s,German,30,images/main/feature/30/no_target/F_C_30_NT_8.jpg,Mon Aug 30 2021 18:43:06 GMT+0100 (BST),1630345386664,98.8518,5,main
3221,4135,23,loved it!,shape,correct,right,1630351317772,no target,256,female,69,s,German,15,images/main/feature/15/no_target/F_C_15_NT_5.jpg,Mon Aug 30 2021 18:43:06 GMT+0100 (BST),1630345386664,98.8518,6,main
3221,1245,23,loved it!,shape,correct,right,1630351317772,target,256,female,64,l,German,15,images/main/feature/15/target/F_C_15_T_8_Sgreen.jpg,Mon Aug 30 2021 18:43:06 GMT+0100 (BST),1630345386664,98.8518,7,main
3221,2948,23,loved it!,shape,correct,right,1630351317772,no target,256,female,71,s,German,15,images/main/feature/15/no_target/F_C_15_NT_7.jpg,Mon Aug 30 2021 18:43:06 GMT+0100 (BST),1630345386664,98.8518,8,main
3221,1027,23,loved it!,color,correct,right,1630351317772,target,256,female,45,l,German,5,images/main/feature/5/target/F_C_5_T_5_Xblue.jpg,Mon Aug 30 2021 18:43:06 GMT+0100 (BST),1630345386664,98.8518,9,main
3221,812,23,loved it!,color,correct,right,1630351317772,target,256,female,29,l,German,1,images/main/feature/1/target/F_C_1_T_5_XBlue.jpg,Mon Aug 30 2021 18:43:06 GMT+0100 (BST),1630345386664,98.8518,10,main
3221,964,23,loved it!,color,correct,right,1630351317772,target,256,female,26,l,German,1,images/main/feature/1/target/F_C_1_T_2_Tblue.jpg,Mon Aug 30 2021 18:43:06 GMT+0100 (BST),1630345386664,98.8518,11,main
3221,1325,23,loved it!,color,correct,right,1630351317772,target,256,female,77,l,German,30,images/main/feature/30/target/F_C_30_T_5_Xblue.jpg,Mon Aug 30 2021 18:43:06 GMT+0100 (BST),1630345386664,98.8518,12,main
3221,971,23,loved it!,color,correct,right,1630351317772,target,256,female,62,l,German,15,images/main/feature/15/target/F_C_15_T_6_Xblue.jpg,Mon Aug 30 2021 18:43:06 GMT+0100 (BST),1630345386664,98.8518,13,main
3221,995,23,loved it!,color,correct,right,1630351317772,target,256,female,57,l,German,15,images/main/feature/15/target/F_C_15_T_1_Tblue.jpg,Mon Aug 30 2021 18:43:06 GMT+0100 (BST),1630345386664,98.8518,14,main
3221,1055,23,loved it!,color,correct,right,1630351317772,target,256,female,25,l,German,1,images/main/feature/1/target/F_C_1_T_1_Tblue.jpg,Mon Aug 30 2021 18:43:06 GMT+0100 (BST),1630345386664,98.8518,15,main
3221,934,23,loved it!,color,correct,right,1630351317772,target,256,female,58,l,German,15,images/main/feature/15/target/F_C_15_T_2_Tblue.jpg,Mon Aug 30 2021 18:43:06 GMT+0100 (BST),1630345386664,98.8518,16,main
3221,1302,23,loved it!,color,correct,right,1630351317772,no target,256,female,81,s,German,30,images/main/feature/30/no_target/F_C_30_NT_1.jpg,Mon Aug 30 2021 18:43:06 GMT+0100 (BST),1630345386664,98.8518,17,main
3221,1163,23,loved it!,color,correct,right,1630351317772,target,256,female,73,l,German,30,images/main/feature/30/target/F_C_30_T_1_Tblue.jpg,Mon Aug 30 2021 18:43:06 GMT+0100 (BST),1630345386664,98.8518,18,main
3221,1189,23,loved it!,color,incorrect,right,1630351317772,no target,256,female,35,l,German,1,images/main/feature/1/no_target/F_C_1_NT_3.jpg,Mon Aug 30 2021 18:43:06 GMT+0100 (BST),1630345386664,98.8518,19,main
3221,1291,23,loved it!,color,correct,right,1630351317772,no target,256,female,52,s,German,5,images/main/feature/5/no_target/F_C_5_NT_4.jpg,Mon Aug 30 2021 18:43:06 GMT+0100 (BST),1630345386664,98.8518,20,main
3221,1096,23,loved it!,color,correct,right,1630351317772,no target,256,female,68,s,German,15,images/main/feature/15/no_target/F_C_15_NT_4.jpg,Mon Aug 30 2021 18:43:06 GMT+0100 (BST),1630345386664,98.8518,21,main
3221,1283,23,loved it!,shape,correct,right,1630351317772,target,256,female,31,l,German,1,images/main/feature/1/target/F_C_1_T_7_Sgreen.jpg,Mon Aug 30 2021 18:43:06 GMT+0100 (BST),1630345386664,98.8518,22,main
3221,1199,23,loved it!,shape,correct,right,1630351317772,no target,256,female,85,s,German,30,images/main/feature/30/no_target/F_C_30_NT_5.jpg,Mon Aug 30 2021 18:43:06 GMT+0100 (BST),1630345386664,98.8518,23,main
3221,1116,23,loved it!,color,correct,right,1630351317772,no target,256,female,66,s,German,15,images/main/feature/15/no_target/F_C_15_NT_2.jpg,Mon Aug 30 2021 18:43:06 GMT+0100 (BST),1630345386664,98.8518,24,main
3221,1436,23,loved it!,shape,correct,right,1630351317772,no target,256,female,72,s,German,15,images/main/feature/15/no_target/F_C_15_NT_8.jpg,Mon Aug 30 2021 18:43:06 GMT+0100 (BST),1630345386664,98.8518,25,main
3221,1139,23,loved it!,shape,correct,right,1630351317772,target,256,female,44,l,German,5,images/main/feature/5/target/F_C_5_T_4_Sbrown.jpg,Mon Aug 30 2021 18:43:06 GMT+0100 (BST),1630345386664,98.8518,26,main
3221,1488,23,loved it!,color,correct,right,1630351317772,no target,256,female,51,s,German,5,images/main/feature/5/no_target/F_C_5_NT_3.jpg,Mon Aug 30 2021 18:43:06 GMT+0100 (BST),1630345386664,98.8518,27,main
3221,1673,23,loved it!,shape,incorrect,right,1630351317772,target,256,female,28,s,German,1,images/main/feature/1/target/F_C_1_T_4_Sbrown.jpg,Mon Aug 30 2021 18:43:06 GMT+0100 (BST),1630345386664,98.8518,28,main
3221,1282,23,loved it!,shape,correct,right,1630351317772,no target,256,female,70,s,German,15,images/main/feature/15/no_target/F_C_15_NT_6.jpg,Mon Aug 30 2021 18:43:06 GMT+0100 (BST),1630345386664,98.8518,29,main
3221,1206,23,loved it!,shape,correct,right,1630351317772,no target,256,female,39,s,German,1,images/main/feature/1/no_target/F_C_1_NT_7.jpg,Mon Aug 30 2021 18:43:06 GMT+0100 (BST),1630345386664,98.8518,30,main
3221,1432,23,loved it!,color,correct,right,1630351317772,no target,256,female,50,s,German,5,images/main/feature/5/no_target/F_C_5_NT_2.jpg,Mon Aug 30 2021 18:43:06 GMT+0100 (BST),1630345386664,98.8518,31,main
3221,1596,23,loved it!,shape,correct,right,1630351317772,no target,256,female,86,s,German,30,images/main/feature/30/no_target/F_C_30_NT_6.jpg,Mon Aug 30 2021 18:43:06 GMT+0100 (BST),1630345386664,98.8518,32,main
3221,1233,23,loved it!,shape,correct,right,1630351317772,target,256,female,43,l,German,5,images/main/feature/5/target/F_C_5_T_3_Sbrown.jpg,Mon Aug 30 2021 18:43:06 GMT+0100 (BST),1630345386664,98.8518,33,main
3221,1171,23,loved it!,shape,correct,right,1630351317772,target,256,female,59,l,German,15,images/main/feature/15/target/F_C_15_T_3_Sbrown.jpg,Mon Aug 30 2021 18:43:06 GMT+0100 (BST),1630345386664,98.8518,34,main
3221,1150,23,loved it!,color,correct,right,1630351317772,target,256,female,78,l,German,30,images/main/feature/30/target/F_C_30_T_6_Xblue.jpg,Mon Aug 30 2021 18:43:06 GMT+0100 (BST),1630345386664,98.8518,35,main
3221,870,23,loved it!,color,incorrect,right,1630351317772,no target,256,female,36,l,German,1,images/main/feature/1/no_target/F_C_1_NT_4.jpg,Mon Aug 30 2021 18:43:06 GMT+0100 (BST),1630345386664,98.8518,36,main
3221,1114,23,loved it!,color,correct,right,1630351317772,target,256,female,74,l,German,30,images/main/feature/30/target/F_C_30_T_2_Tblue.jpg,Mon Aug 30 2021 18:43:06 GMT+0100 (BST),1630345386664,98.8518,37,main
3221,2014,23,loved it!,color,correct,right,1630351317772,no target,256,female,84,s,German,30,images/main/feature/30/no_target/F_C_30_NT_4.jpg,Mon Aug 30 2021 18:43:06 GMT+0100 (BST),1630345386664,98.8518,38,main
3221,637,23,loved it!,color,incorrect,right,1630351317772,no target,256,female,49,l,German,5,images/main/feature/5/no_target/F_C_5_NT_1.jpg,Mon Aug 30 2021 18:43:06 GMT+0100 (BST),1630345386664,98.8518,39,main
3221,1095,23,loved it!,shape,incorrect,right,1630351317772,target,256,female,48,s,German,5,images/main/feature/5/target/F_C_5_T_8_Sgreen.jpg,Mon Aug 30 2021 18:43:06 GMT+0100 (BST),1630345386664,98.8518,40,main
3221,1029,23,loved it!,shape,correct,right,1630351317772,no target,256,female,54,s,German,5,images/main/feature/5/no_target/F_C_5_NT_6.jpg,Mon Aug 30 2021 18:43:06 GMT+0100 (BST),1630345386664,98.8518,41,main
3221,1266,23,loved it!,color,correct,right,1630351317772,target,256,female,61,l,German,15,images/main/feature/15/target/F_C_15_T_5_Xblue.jpg,Mon Aug 30 2021 18:43:06 GMT+0100 (BST),1630345386664,98.8518,42,main
3221,1133,23,loved it!,shape,correct,right,1630351317772,target,256,female,27,l,German,1,images/main/feature/1/target/F_C_1_T_3_Sbrown.jpg,Mon Aug 30 2021 18:43:06 GMT+0100 (BST),1630345386664,98.8518,43,main
3221,1140,23,loved it!,color,incorrect,right,1630351317772,target,256,female,46,s,German,5,images/main/feature/5/target/F_C_5_T_6_Xblue.jpg,Mon Aug 30 2021 18:43:06 GMT+0100 (BST),1630345386664,98.8518,44,main
3221,1043,23,loved it!,shape,correct,right,1630351317772,no target,256,female,56,s,German,5,images/main/feature/5/no_target/F_C_5_NT_8.jpg,Mon Aug 30 2021 18:43:06 GMT+0100 (BST),1630345386664,98.8518,45,main
3221,1173,23,loved it!,color,correct,right,1630351317772,no target,256,female,67,s,German,15,images/main/feature/15/no_target/F_C_15_NT_3.jpg,Mon Aug 30 2021 18:43:06 GMT+0100 (BST),1630345386664,98.8518,46,main
3221,1070,23,loved it!,shape,correct,right,1630351317772,target,256,female,60,l,German,15,images/main/feature/15/target/F_C_15_T_4_Sbrown.jpg,Mon Aug 30 2021 18:43:06 GMT+0100 (BST),1630345386664,98.8518,47,main
3221,1100,23,loved it!,color,incorrect,right,1630351317772,no target,256,female,34,l,German,1,images/main/feature/1/no_target/F_C_1_NT_2.jpg,Mon Aug 30 2021 18:43:06 GMT+0100 (BST),1630345386664,98.8518,48,main
3221,1007,23,loved it!,color,incorrect,right,1630351317772,no target,256,female,33,l,German,1,images/main/feature/1/no_target/F_C_1_NT_1.jpg,Mon Aug 30 2021 18:43:06 GMT+0100 (BST),1630345386664,98.8518,49,main
3221,1368,23,loved it!,shape,correct,right,1630351317772,no target,256,female,55,s,German,5,images/main/feature/5/no_target/F_C_5_NT_7.jpg,Mon Aug 30 2021 18:43:06 GMT+0100 (BST),1630345386664,98.8518,50,main
3221,1019,23,loved it!,shape,correct,right,1630351317772,target,256,female,76,l,German,30,images/main/feature/30/target/F_C_30_T_4_Sbrown.jpg,Mon Aug 30 2021 18:43:06 GMT+0100 (BST),1630345386664,98.8518,51,main
3221,1304,23,loved it!,shape,correct,right,1630351317772,target,256,female,63,l,German,15,images/main/feature/15/target/F_C_15_T_7_Sgreen.jpg,Mon Aug 30 2021 18:43:06 GMT+0100 (BST),1630345386664,98.8518,52,main
3221,988,23,loved it!,color,correct,right,1630351317772,target,256,female,30,l,German,1,images/main/feature/1/target/F_C_1_T_6_XBlue.jpg,Mon Aug 30 2021 18:43:06 GMT+0100 (BST),1630345386664,98.8518,53,main
3221,1403,23,loved it!,shape,correct,right,1630351317772,no target,256,female,53,s,German,5,images/main/feature/5/no_target/F_C_5_NT_5.jpg,Mon Aug 30 2021 18:43:06 GMT+0100 (BST),1630345386664,98.8518,54,main
3221,1402,23,loved it!,color,correct,right,1630351317772,no target,256,female,83,s,German,30,images/main/feature/30/no_target/F_C_30_NT_3.jpg,Mon Aug 30 2021 18:43:06 GMT+0100 (BST),1630345386664,98.8518,55,main
3221,1208,23,loved it!,shape,correct,right,1630351317772,target,256,female,80,l,German,30,images/main/feature/30/target/F_C_30_T_8_Sgreen.jpg,Mon Aug 30 2021 18:43:06 GMT+0100 (BST),1630345386664,98.8518,56,main
3221,808,23,loved it!,color,correct,right,1630351317772,target,256,female,41,l,German,5,images/main/feature/5/target/F_C_5_T_1_Tblue.jpg,Mon Aug 30 2021 18:43:06 GMT+0100 (BST),1630345386664,98.8518,57,main
3221,1128,23,loved it!,shape,correct,right,1630351317772,no target,256,female,38,s,German,1,images/main/feature/1/no_target/F_C_1_NT_6.jpg,Mon Aug 30 2021 18:43:06 GMT+0100 (BST),1630345386664,98.8518,58,main
3221,1370,23,loved it!,color,correct,right,1630351317772,no target,256,female,82,s,German,30,images/main/feature/30/no_target/F_C_30_NT_2.jpg,Mon Aug 30 2021 18:43:06 GMT+0100 (BST),1630345386664,98.8518,59,main
3221,1096,23,loved it!,shape,correct,right,1630351317772,target,256,female,32,l,German,1,images/main/feature/1/target/F_C_1_T_8_Sgreen.jpg,Mon Aug 30 2021 18:43:06 GMT+0100 (BST),1630345386664,98.8518,60,main
3221,1187,23,loved it!,shape,correct,right,1630351317772,no target,256,female,87,s,German,30,images/main/feature/30/no_target/F_C_30_NT_7.jpg,Mon Aug 30 2021 18:43:06 GMT+0100 (BST),1630345386664,98.8518,61,main
3221,1048,23,loved it!,color,correct,right,1630351317772,no target,256,female,65,s,German,15,images/main/feature/15/no_target/F_C_15_NT_1.jpg,Mon Aug 30 2021 18:43:06 GMT+0100 (BST),1630345386664,98.8518,62,main
3221,990,23,loved it!,shape,correct,right,1630351317772,no target,256,female,40,s,German,1,images/main/feature/1/no_target/F_C_1_NT_8.jpg,Mon Aug 30 2021 18:43:06 GMT+0100 (BST),1630345386664,98.8518,63,main
3221,965,23,loved it!,shape,correct,right,1630351317772,no target,256,female,37,s,German,1,images/main/feature/1/no_target/F_C_1_NT_5.jpg,Mon Aug 30 2021 18:43:06 GMT+0100 (BST),1630345386664,98.8518,64,main
3221,1245,23,loved it!,color,correct,right,1630351317772,target,256,female,58,l,German,15,images/main/feature/15/target/F_C_15_T_2_Tblue.jpg,Mon Aug 30 2021 18:43:06 GMT+0100 (BST),1630345386664,98.8518,1,main
3221,917,23,loved it!,color,correct,right,1630351317772,target,256,female,45,l,German,5,images/main/feature/5/target/F_C_5_T_5_Xblue.jpg,Mon Aug 30 2021 18:43:06 GMT+0100 (BST),1630345386664,98.8518,2,main
3221,1282,23,loved it!,shape,correct,right,1630351317772,target,256,female,75,l,German,30,images/main/feature/30/target/F_C_30_T_3_Sbrown.jpg,Mon Aug 30 2021 18:43:06 GMT+0100 (BST),1630345386664,98.8518,3,main
3221,1375,23,loved it!,shape,correct,right,1630351317772,target,256,female,48,l,German,5,images/main/feature/5/target/F_C_5_T_8_Sgreen.jpg,Mon Aug 30 2021 18:43:06 GMT+0100 (BST),1630345386664,98.8518,4,main
3221,2058,23,loved it!,shape,incorrect,right,1630351317772,target,256,female,59,s,German,15,images/main/feature/15/target/F_C_15_T_3_Sbrown.jpg,Mon Aug 30 2021 18:43:06 GMT+0100 (BST),1630345386664,98.8518,5,main
3221,1136,23,loved it!,shape,correct,right,1630351317772,no target,256,female,71,s,German,15,images/main/feature/15/no_target/F_C_15_NT_7.jpg,Mon Aug 30 2021 18:43:06 GMT+0100 (BST),1630345386664,98.8518,6,main
3221,1247,23,loved it!,shape,correct,right,1630351317772,no target,256,female,87,s,German,30,images/main/feature/30/no_target/F_C_30_NT_7.jpg,Mon Aug 30 2021 18:43:06 GMT+0100 (BST),1630345386664,98.8518,7,main
3221,971,23,loved it!,color,correct,right,1630351317772,target,256,female,77,l,German,30,images/main/feature/30/target/F_C_30_T_5_Xblue.jpg,Mon Aug 30 2021 18:43:06 GMT+0100 (BST),1630345386664,98.8518,8,main
3221,1344,23,loved it!,shape,correct,right,1630351317772,no target,256,female,53,s,German,5,images/main/feature/5/no_target/F_C_5_NT_5.jpg,Mon Aug 30 2021 18:43:06 GMT+0100 (BST),1630345386664,98.8518,9,main
3221,1061,23,loved it!,color,correct,right,1630351317772,target,256,female,46,l,German,5,images/main/feature/5/target/F_C_5_T_6_Xblue.jpg,Mon Aug 30 2021 18:43:06 GMT+0100 (BST),1630345386664,98.8518,10,main
3221,1059,23,loved it!,color,correct,right,1630351317772,no target,256,female,84,s,German,30,images/main/feature/30/no_target/F_C_30_NT_4.jpg,Mon Aug 30 2021 18:43:06 GMT+0100 (BST),1630345386664,98.8518,11,main
3221,966,23,loved it!,shape,correct,right,1630351317772,target,256,female,31,l,German,1,images/main/feature/1/target/F_C_1_T_7_Sgreen.jpg,Mon Aug 30 2021 18:43:06 GMT+0100 (BST),1630345386664,98.8518,12,main
3221,1525,23,loved it!,shape,incorrect,right,1630351317772,target,256,female,80,s,German,30,images/main/feature/30/target/F_C_30_T_8_Sgreen.jpg,Mon Aug 30 2021 18:43:06 GMT+0100 (BST),1630345386664,98.8518,13,main
3221,1257,23,loved it!,color,correct,right,1630351317772,no target,256,female,36,s,German,1,images/main/feature/1/no_target/F_C_1_NT_4.jpg,Mon Aug 30 2021 18:43:06 GMT+0100 (BST),1630345386664,98.8518,14,main
3221,1414,23,loved it!,color,correct,right,1630351317772,target,256,female,57,l,German,15,images/main/feature/15/target/F_C_15_T_1_Tblue.jpg,Mon Aug 30 2021 18:43:06 GMT+0100 (BST),1630345386664,98.8518,15,main
3221,1301,23,loved it!,shape,correct,right,1630351317772,target,256,female,28,l,German,1,images/main/feature/1/target/F_C_1_T_4_Sbrown.jpg,Mon Aug 30 2021 18:43:06 GMT+0100 (BST),1630345386664,98.8518,16,main
3221,1047,23,loved it!,color,correct,right,1630351317772,target,256,female,26,l,German,1,images/main/feature/1/target/F_C_1_T_2_Tblue.jpg,Mon Aug 30 2021 18:43:06 GMT+0100 (BST),1630345386664,98.8518,17,main
3221,1267,23,loved it!,color,correct,right,1630351317772,target,256,female,42,l,German,5,images/main/feature/5/target/F_C_5_T_2_Tblue.jpg,Mon Aug 30 2021 18:43:06 GMT+0100 (BST),1630345386664,98.8518,18,main
3221,1261,23,loved it!,color,correct,right,1630351317772,no target,256,female,35,s,German,1,images/main/feature/1/no_target/F_C_1_NT_3.jpg,Mon Aug 30 2021 18:43:06 GMT+0100 (BST),1630345386664,98.8518,19,main
3221,1002,23,loved it!,color,correct,right,1630351317772,no target,256,female,34,s,German,1,images/main/feature/1/no_target/F_C_1_NT_2.jpg,Mon Aug 30 2021 18:43:06 GMT+0100 (BST),1630345386664,98.8518,20,main
3221,899,23,loved it!,shape,correct,right,1630351317772,no target,256,female,72,s,German,15,images/main/feature/15/no_target/F_C_15_NT_8.jpg,Mon Aug 30 2021 18:43:06 GMT+0100 (BST),1630345386664,98.8518,21,main
3221,1236,23,loved it!,shape,correct,right,1630351317772,target,256,female,63,l,German,15,images/main/feature/15/target/F_C_15_T_7_Sgreen.jpg,Mon Aug 30 2021 18:43:06 GMT+0100 (BST),1630345386664,98.8518,22,main
3221,1063,23,loved it!,shape,correct,right,1630351317772,target,256,female,64,l,German,15,images/main/feature/15/target/F_C_15_T_8_Sgreen.jpg,Mon Aug 30 2021 18:43:06 GMT+0100 (BST),1630345386664,98.8518,23,main
3221,870,23,loved it!,shape,correct,right,1630351317772,target,256,female,47,l,German,5,images/main/feature/5/target/F_C_5_T_7_Sgreen.jpg,Mon Aug 30 2021 18:43:06 GMT+0100 (BST),1630345386664,98.8518,24,main
3221,956,23,loved it!,shape,correct,right,1630351317772,no target,256,female,40,s,German,1,images/main/feature/1/no_target/F_C_1_NT_8.jpg,Mon Aug 30 2021 18:43:06 GMT+0100 (BST),1630345386664,98.8518,25,main
3221,1250,23,loved it!,shape,correct,right,1630351317772,no target,256,female,56,s,German,5,images/main/feature/5/no_target/F_C_5_NT_8.jpg,Mon Aug 30 2021 18:43:06 GMT+0100 (BST),1630345386664,98.8518,26,main
3221,1162,23,loved it!,shape,correct,right,1630351317772,no target,256,female,55,s,German,5,images/main/feature/5/no_target/F_C_5_NT_7.jpg,Mon Aug 30 2021 18:43:06 GMT+0100 (BST),1630345386664,98.8518,27,main
3221,1181,23,loved it!,shape,correct,right,1630351317772,target,256,female,79,l,German,30,images/main/feature/30/target/F_C_30_T_7_Sgreen.jpg,Mon Aug 30 2021 18:43:06 GMT+0100 (BST),1630345386664,98.8518,28,main
3221,1643,23,loved it!,color,correct,right,1630351317772,no target,256,female,81,s,German,30,images/main/feature/30/no_target/F_C_30_NT_1.jpg,Mon Aug 30 2021 18:43:06 GMT+0100 (BST),1630345386664,98.8518,29,main
3221,998,23,loved it!,color,correct,right,1630351317772,no target,256,female,52,s,German,5,images/main/feature/5/no_target/F_C_5_NT_4.jpg,Mon Aug 30 2021 18:43:06 GMT+0100 (BST),1630345386664,98.8518,30,main
3221,1093,23,loved it!,color,correct,right,1630351317772,target,256,female,62,l,German,15,images/main/feature/15/target/F_C_15_T_6_Xblue.jpg,Mon Aug 30 2021 18:43:06 GMT+0100 (BST),1630345386664,98.8518,31,main
3221,1267,23,loved it!,color,correct,right,1630351317772,no target,256,female,82,s,German,30,images/main/feature/30/no_target/F_C_30_NT_2.jpg,Mon Aug 30 2021 18:43:06 GMT+0100 (BST),1630345386664,98.8518,32,main
3221,1351,23,loved it!,color,correct,right,1630351317772,no target,256,female,68,s,German,15,images/main/feature/15/no_target/F_C_15_NT_4.jpg,Mon Aug 30 2021 18:43:06 GMT+0100 (BST),1630345386664,98.8518,33,main
3221,881,23,loved it!,shape,correct,right,1630351317772,no target,256,female,38,s,German,1,images/main/feature/1/no_target/F_C_1_NT_6.jpg,Mon Aug 30 2021 18:43:06 GMT+0100 (BST),1630345386664,98.8518,34,main
3221,910,23,loved it!,shape,correct,right,1630351317772,no target,256,female,39,s,German,1,images/main/feature/1/no_target/F_C_1_NT_7.jpg,Mon Aug 30 2021 18:43:06 GMT+0100 (BST),1630345386664,98.8518,35,main
3221,1268,23,loved it!,shape,correct,right,1630351317772,target,256,female,27,l,German,1,images/main/feature/1/target/F_C_1_T_3_Sbrown.jpg,Mon Aug 30 2021 18:43:06 GMT+0100 (BST),1630345386664,98.8518,36,main
3221,1214,23,loved it!,shape,correct,right,1630351317772,no target,256,female,88,s,German,30,images/main/feature/30/no_target/F_C_30_NT_8.jpg,Mon Aug 30 2021 18:43:06 GMT+0100 (BST),1630345386664,98.8518,37,main
3221,1226,23,loved it!,shape,correct,right,1630351317772,target,256,female,32,l,German,1,images/main/feature/1/target/F_C_1_T_8_Sgreen.jpg,Mon Aug 30 2021 18:43:06 GMT+0100 (BST),1630345386664,98.8518,38,main
3221,1487,23,loved it!,color,correct,right,1630351317772,target,256,female,41,l,German,5,images/main/feature/5/target/F_C_5_T_1_Tblue.jpg,Mon Aug 30 2021 18:43:06 GMT+0100 (BST),1630345386664,98.8518,39,main
3221,1361,23,loved it!,shape,correct,right,1630351317772,target,256,female,44,l,German,5,images/main/feature/5/target/F_C_5_T_4_Sbrown.jpg,Mon Aug 30 2021 18:43:06 GMT+0100 (BST),1630345386664,98.8518,40,main
3221,946,23,loved it!,shape,correct,right,1630351317772,target,256,female,76,l,German,30,images/main/feature/30/target/F_C_30_T_4_Sbrown.jpg,Mon Aug 30 2021 18:43:06 GMT+0100 (BST),1630345386664,98.8518,41,main
3221,891,23,loved it!,color,correct,right,1630351317772,no target,256,female,50,s,German,5,images/main/feature/5/no_target/F_C_5_NT_2.jpg,Mon Aug 30 2021 18:43:06 GMT+0100 (BST),1630345386664,98.8518,42,main
3221,982,23,loved it!,shape,correct,right,1630351317772,no target,256,female,85,s,German,30,images/main/feature/30/no_target/F_C_30_NT_5.jpg,Mon Aug 30 2021 18:43:06 GMT+0100 (BST),1630345386664,98.8518,43,main
3221,1270,23,loved it!,color,correct,right,1630351317772,no target,256,female,65,s,German,15,images/main/feature/15/no_target/F_C_15_NT_1.jpg,Mon Aug 30 2021 18:43:06 GMT+0100 (BST),1630345386664,98.8518,44,main
3221,2464,23,loved it!,shape,correct,right,1630351317772,no target,256,female,54,s,German,5,images/main/feature/5/no_target/F_C_5_NT_6.jpg,Mon Aug 30 2021 18:43:06 GMT+0100 (BST),1630345386664,98.8518,45,main
3221,1150,23,loved it!,color,correct,right,1630351317772,no target,256,female,51,s,German,5,images/main/feature/5/no_target/F_C_5_NT_3.jpg,Mon Aug 30 2021 18:43:06 GMT+0100 (BST),1630345386664,98.8518,46,main
3221,984,23,loved it!,color,correct,right,1630351317772,target,256,female,73,l,German,30,images/main/feature/30/target/F_C_30_T_1_Tblue.jpg,Mon Aug 30 2021 18:43:06 GMT+0100 (BST),1630345386664,98.8518,47,main
3221,1672,23,loved it!,color,correct,right,1630351317772,no target,256,female,66,s,German,15,images/main/feature/15/no_target/F_C_15_NT_2.jpg,Mon Aug 30 2021 18:43:06 GMT+0100 (BST),1630345386664,98.8518,48,main
3221,1002,23,loved it!,color,correct,right,1630351317772,no target,256,female,83,s,German,30,images/main/feature/30/no_target/F_C_30_NT_3.jpg,Mon Aug 30 2021 18:43:06 GMT+0100 (BST),1630345386664,98.8518,49,main
3221,961,23,loved it!,color,correct,right,1630351317772,no target,256,female,33,s,German,1,images/main/feature/1/no_target/F_C_1_NT_1.jpg,Mon Aug 30 2021 18:43:06 GMT+0100 (BST),1630345386664,98.8518,50,main
3221,1018,23,loved it!,color,correct,right,1630351317772,target,256,female,25,l,German,1,images/main/feature/1/target/F_C_1_T_1_Tblue.jpg,Mon Aug 30 2021 18:43:06 GMT+0100 (BST),1630345386664,98.8518,51,main
3221,1077,23,loved it!,color,correct,right,1630351317772,target,256,female,74,l,German,30,images/main/feature/30/target/F_C_30_T_2_Tblue.jpg,Mon Aug 30 2021 18:43:06 GMT+0100 (BST),1630345386664,98.8518,52,main
3221,989,23,loved it!,shape,correct,right,1630351317772,target,256,female,43,l,German,5,images/main/feature/5/target/F_C_5_T_3_Sbrown.jpg,Mon Aug 30 2021 18:43:06 GMT+0100 (BST),1630345386664,98.8518,53,main
3221,1193,23,loved it!,color,correct,right,1630351317772,no target,256,female,49,s,German,5,images/main/feature/5/no_target/F_C_5_NT_1.jpg,Mon Aug 30 2021 18:43:06 GMT+0100 (BST),1630345386664,98.8518,54,main
3221,1137,23,loved it!,shape,incorrect,right,1630351317772,target,256,female,60,s,German,15,images/main/feature/15/target/F_C_15_T_4_Sbrown.jpg,Mon Aug 30 2021 18:43:06 GMT+0100 (BST),1630345386664,98.8518,55,main
3221,974,23,loved it!,color,correct,right,1630351317772,target,256,female,29,l,German,1,images/main/feature/1/target/F_C_1_T_5_XBlue.jpg,Mon Aug 30 2021 18:43:06 GMT+0100 (BST),1630345386664,98.8518,56,main
3221,927,23,loved it!,color,correct,right,1630351317772,target,256,female,30,l,German,1,images/main/feature/1/target/F_C_1_T_6_XBlue.jpg,Mon Aug 30 2021 18:43:06 GMT+0100 (BST),1630345386664,98.8518,57,main
3221,1024,23,loved it!,shape,correct,right,1630351317772,no target,256,female,86,s,German,30,images/main/feature/30/no_target/F_C_30_NT_6.jpg,Mon Aug 30 2021 18:43:06 GMT+0100 (BST),1630345386664,98.8518,58,main
3221,908,23,loved it!,color,correct,right,1630351317772,target,256,female,78,l,German,30,images/main/feature/30/target/F_C_30_T_6_Xblue.jpg,Mon Aug 30 2021 18:43:06 GMT+0100 (BST),1630345386664,98.8518,59,main
3221,1170,23,loved it!,color,correct,right,1630351317772,no target,256,female,67,s,German,15,images/main/feature/15/no_target/F_C_15_NT_3.jpg,Mon Aug 30 2021 18:43:06 GMT+0100 (BST),1630345386664,98.8518,60,main
3221,1140,23,loved it!,shape,correct,right,1630351317772,no target,256,female,70,s,German,15,images/main/feature/15/no_target/F_C_15_NT_6.jpg,Mon Aug 30 2021 18:43:06 GMT+0100 (BST),1630345386664,98.8518,61,main
3221,1016,23,loved it!,shape,correct,right,1630351317772,no target,256,female,37,s,German,1,images/main/feature/1/no_target/F_C_1_NT_5.jpg,Mon Aug 30 2021 18:43:06 GMT+0100 (BST),1630345386664,98.8518,62,main
3221,1015,23,loved it!,color,correct,right,1630351317772,target,256,female,61,l,German,15,images/main/feature/15/target/F_C_15_T_5_Xblue.jpg,Mon Aug 30 2021 18:43:06 GMT+0100 (BST),1630345386664,98.8518,63,main
3221,986,23,loved it!,shape,correct,right,1630351317772,no target,256,female,69,s,German,15,images/main/feature/15/no_target/F_C_15_NT_5.jpg,Mon Aug 30 2021 18:43:06 GMT+0100 (BST),1630345386664,98.8518,64,main
3220,3603,27,"Hallo, ihr da drben! <3",conjunction,correct,right,1630348621503,no target,256,male,18,s,German,1,images/practice/conjunction/C_1_NT_TRAIN.jpg,Mon Aug 30 2021 19:45:15 GMT+0200 (Mitteleuropische Sommerzeit),1630345515990,51.75855,1,practice
3220,1235,27,"Hallo, ihr da drben! <3",conjunction,correct,right,1630348621503,target,256,male,17,l,German,1,images/practice/conjunction/C_1_T_TRAIN.jpg,Mon Aug 30 2021 19:45:15 GMT+0200 (Mitteleuropische Sommerzeit),1630345515990,51.75855,2,practice
3220,2101,27,"Hallo, ihr da drben! <3",conjunction,correct,right,1630348621503,no target,256,male,22,s,German,15,images/practice/conjunction/C_15_NT_TRAIN.jpg,Mon Aug 30 2021 19:45:15 GMT+0200 (Mitteleuropische Sommerzeit),1630345515990,51.75855,3,practice
3220,2375,27,"Hallo, ihr da drben! <3",conjunction,correct,right,1630348621503,target,256,male,21,l,German,15,images/practice/conjunction/C_15_T_TRAIN.jpg,Mon Aug 30 2021 19:45:15 GMT+0200 (Mitteleuropische Sommerzeit),1630345515990,51.75855,4,practice
3220,1889,27,"Hallo, ihr da drben! <3",conjunction,correct,right,1630348621503,target,256,male,19,l,German,5,images/practice/conjunction/C_5_T_TRAIN.jpg,Mon Aug 30 2021 19:45:15 GMT+0200 (Mitteleuropische Sommerzeit),1630345515990,51.75855,5,practice
3220,2164,27,"Hallo, ihr da drben! <3",conjunction,incorrect,right,1630348621503,target,256,male,23,s,German,30,images/practice/conjunction/C_30_T_TRAIN.jpg,Mon Aug 30 2021 19:45:15 GMT+0200 (Mitteleuropische Sommerzeit),1630345515990,51.75855,6,practice
3220,1399,27,"Hallo, ihr da drben! <3",conjunction,correct,right,1630348621503,no target,256,male,20,s,German,5,images/practice/conjunction/C_5_NT_TRAIN.jpg,Mon Aug 30 2021 19:45:15 GMT+0200 (Mitteleuropische Sommerzeit),1630345515990,51.75855,7,practice
3220,2615,27,"Hallo, ihr da drben! <3",conjunction,correct,right,1630348621503,no target,256,male,24,s,German,30,images/practice/conjunction/C_30_NT_TRAIN.jpg,Mon Aug 30 2021 19:45:15 GMT+0200 (Mitteleuropische Sommerzeit),1630345515990,51.75855,8,practice
3220,1266,27,"Hallo, ihr da drben! <3",color,correct,right,1630348621503,target,256,male,1,l,German,1,images/practice/feature/F_C_1_T_1_Tblue_TRAIN.jpg,Mon Aug 30 2021 19:45:15 GMT+0200 (Mitteleuropische Sommerzeit),1630345515990,51.75855,1,practice
3220,1339,27,"Hallo, ihr da drben! <3",shape,incorrect,right,1630348621503,target,256,male,7,s,German,30,images/practice/feature/F_C_30_T_8_Sgreen_TRAIN.jpg,Mon Aug 30 2021 19:45:15 GMT+0200 (Mitteleuropische Sommerzeit),1630345515990,51.75855,2,practice
3220,2214,27,"Hallo, ihr da drben! <3",color,correct,right,1630348621503,no target,256,male,6,s,German,15,images/practice/feature/F_C_15_NT_TRAIN.jpg,Mon Aug 30 2021 19:45:15 GMT+0200 (Mitteleuropische Sommerzeit),1630345515990,51.75855,3,practice
3220,1170,27,"Hallo, ihr da drben! <3",color,correct,right,1630348621503,no target,256,male,2,s,German,1,images/practice/feature/F_1_NT_TRAIN.jpg,Mon Aug 30 2021 19:45:15 GMT+0200 (Mitteleuropische Sommerzeit),1630345515990,51.75855,4,practice
3220,1351,27,"Hallo, ihr da drben! <3",shape,correct,right,1630348621503,target,256,male,3,l,German,5,images/practice/feature/F_5_T_3_Sbrown_TRAIN.jpg,Mon Aug 30 2021 19:45:15 GMT+0200 (Mitteleuropische Sommerzeit),1630345515990,51.75855,5,practice
3220,1230,27,"Hallo, ihr da drben! <3",shape,correct,right,1630348621503,no target,256,male,4,s,German,5,images/practice/feature/F_5_NT_TRAIN.jpg,Mon Aug 30 2021 19:45:15 GMT+0200 (Mitteleuropische Sommerzeit),1630345515990,51.75855,6,practice
3220,2874,27,"Hallo, ihr da drben! <3",shape,correct,right,1630348621503,no target,256,male,8,s,German,30,images/practice/feature/F_C_30_NT_1_TRAIN.jpg,Mon Aug 30 2021 19:45:15 GMT+0200 (Mitteleuropische Sommerzeit),1630345515990,51.75855,7,practice
3220,1108,27,"Hallo, ihr da drben! <3",color,correct,right,1630348621503,target,256,male,5,l,German,15,images/practice/feature/F_C_15_T_5_Xblue_TRAIN.jpg,Mon Aug 30 2021 19:45:15 GMT+0200 (Mitteleuropische Sommerzeit),1630345515990,51.75855,8,practice
3220,2853,27,"Hallo, ihr da drben! <3",conjunction,incorrect,right,1630348621503,target,256,male,208,s,German,30,images/main/conjunction/30/target/C_30_T_8.jpg,Mon Aug 30 2021 19:45:15 GMT+0200 (Mitteleuropische Sommerzeit),1630345515990,51.75855,1,main
3220,886,27,"Hallo, ihr da drben! <3",conjunction,correct,right,1630348621503,target,256,male,157,l,German,1,images/main/conjunction/1/target/C_1_T_5.jpg,Mon Aug 30 2021 19:45:15 GMT+0200 (Mitteleuropische Sommerzeit),1630345515990,51.75855,2,main
3220,2424,27,"Hallo, ihr da drben! <3",conjunction,correct,right,1630348621503,no target,256,male,210,s,German,30,images/main/conjunction/30/no_target/C_30_NT_2.jpg,Mon Aug 30 2021 19:45:15 GMT+0200 (Mitteleuropische Sommerzeit),1630345515990,51.75855,3,main
3220,2452,27,"Hallo, ihr da drben! <3",conjunction,correct,right,1630348621503,no target,256,male,211,s,German,30,images/main/conjunction/30/no_target/C_30_NT_3.jpg,Mon Aug 30 2021 19:45:15 GMT+0200 (Mitteleuropische Sommerzeit),1630345515990,51.75855,4,main
3220,986,27,"Hallo, ihr da drben! <3",conjunction,correct,right,1630348621503,no target,256,male,182,s,German,5,images/main/conjunction/5/no_target/C_5_NT_6.jpg,Mon Aug 30 2021 19:45:15 GMT+0200 (Mitteleuropische Sommerzeit),1630345515990,51.75855,5,main
3220,730,27,"Hallo, ihr da drben! <3",conjunction,correct,right,1630348621503,target,256,male,174,l,German,5,images/main/conjunction/5/target/C_5_T_6.jpg,Mon Aug 30 2021 19:45:15 GMT+0200 (Mitteleuropische Sommerzeit),1630345515990,51.75855,6,main
3220,1201,27,"Hallo, ihr da drben! <3",conjunction,correct,right,1630348621503,no target,256,male,193,s,German,15,images/main/conjunction/15/no_target/C_15_NT_1.jpg,Mon Aug 30 2021 19:45:15 GMT+0200 (Mitteleuropische Sommerzeit),1630345515990,51.75855,7,main
3220,2143,27,"Hallo, ihr da drben! <3",conjunction,correct,right,1630348621503,target,256,male,191,l,German,15,images/main/conjunction/15/target/C_15_T_7.jpg,Mon Aug 30 2021 19:45:15 GMT+0200 (Mitteleuropische Sommerzeit),1630345515990,51.75855,8,main
3220,1083,27,"Hallo, ihr da drben! <3",conjunction,correct,right,1630348621503,no target,256,male,161,s,German,1,images/main/conjunction/1/no_target/C_1_NT_1.jpg,Mon Aug 30 2021 19:45:15 GMT+0200 (Mitteleuropische Sommerzeit),1630345515990,51.75855,9,main
3220,976,27,"Hallo, ihr da drben! <3",conjunction,correct,right,1630348621503,target,256,male,186,l,German,15,images/main/conjunction/15/target/C_15_T_2.jpg,Mon Aug 30 2021 19:45:15 GMT+0200 (Mitteleuropische Sommerzeit),1630345515990,51.75855,10,main
3220,794,27,"Hallo, ihr da drben! <3",conjunction,correct,right,1630348621503,target,256,male,159,l,German,1,images/main/conjunction/1/target/C_1_T_7.jpg,Mon Aug 30 2021 19:45:15 GMT+0200 (Mitteleuropische Sommerzeit),1630345515990,51.75855,11,main
3220,883,27,"Hallo, ihr da drben! <3",conjunction,correct,right,1630348621503,no target,256,male,179,s,German,5,images/main/conjunction/5/no_target/C_5_NT_3.jpg,Mon Aug 30 2021 19:45:15 GMT+0200 (Mitteleuropische Sommerzeit),1630345515990,51.75855,12,main
3220,2523,27,"Hallo, ihr da drben! <3",conjunction,correct,right,1630348621503,no target,256,male,216,s,German,30,images/main/conjunction/30/no_target/C_30_NT_8.jpg,Mon Aug 30 2021 19:45:15 GMT+0200 (Mitteleuropische Sommerzeit),1630345515990,51.75855,13,main
3220,1103,27,"Hallo, ihr da drben! <3",conjunction,correct,right,1630348621503,target,256,male,189,l,German,15,images/main/conjunction/15/target/C_15_T_5.jpg,Mon Aug 30 2021 19:45:15 GMT+0200 (Mitteleuropische Sommerzeit),1630345515990,51.75855,14,main
3220,850,27,"Hallo, ihr da drben! <3",conjunction,correct,right,1630348621503,no target,256,male,181,s,German,5,images/main/conjunction/5/no_target/C_5_NT_5.jpg,Mon Aug 30 2021 19:45:15 GMT+0200 (Mitteleuropische Sommerzeit),1630345515990,51.75855,15,main
3220,952,27,"Hallo, ihr da drben! <3",conjunction,correct,right,1630348621503,no target,256,male,183,s,German,5,images/main/conjunction/5/no_target/C_5_NT_7.jpg,Mon Aug 30 2021 19:45:15 GMT+0200 (Mitteleuropische Sommerzeit),1630345515990,51.75855,16,main
3220,1435,27,"Hallo, ihr da drben! <3",conjunction,correct,right,1630348621503,no target,256,male,200,s,German,15,images/main/conjunction/15/no_target/C_15_NT_8.jpg,Mon Aug 30 2021 19:45:15 GMT+0200 (Mitteleuropische Sommerzeit),1630345515990,51.75855,17,main
3220,863,27,"Hallo, ihr da drben! <3",conjunction,correct,right,1630348621503,target,256,male,153,l,German,1,images/main/conjunction/1/target/C_1_T_1.jpg,Mon Aug 30 2021 19:45:15 GMT+0200 (Mitteleuropische Sommerzeit),1630345515990,51.75855,18,main
3220,1346,27,"Hallo, ihr da drben! <3",conjunction,correct,right,1630348621503,target,256,male,207,l,German,30,images/main/conjunction/30/target/C_30_T_7.jpg,Mon Aug 30 2021 19:45:15 GMT+0200 (Mitteleuropische Sommerzeit),1630345515990,51.75855,19,main
3220,885,27,"Hallo, ihr da drben! <3",conjunction,correct,right,1630348621503,no target,256,male,177,s,German,5,images/main/conjunction/5/no_target/C_5_NT_1.jpg,Mon Aug 30 2021 19:45:15 GMT+0200 (Mitteleuropische Sommerzeit),1630345515990,51.75855,20,main
3220,1261,27,"Hallo, ihr da drben! <3",conjunction,correct,right,1630348621503,target,256,male,173,l,German,5,images/main/conjunction/5/target/C_5_T_5.jpg,Mon Aug 30 2021 19:45:15 GMT+0200 (Mitteleuropische Sommerzeit),1630345515990,51.75855,21,main
3220,879,27,"Hallo, ihr da drben! <3",conjunction,correct,right,1630348621503,no target,256,male,180,s,German,5,images/main/conjunction/5/no_target/C_5_NT_4.jpg,Mon Aug 30 2021 19:45:15 GMT+0200 (Mitteleuropische Sommerzeit),1630345515990,51.75855,22,main
3220,2444,27,"Hallo, ihr da drben! <3",conjunction,correct,right,1630348621503,no target,256,male,213,s,German,30,images/main/conjunction/30/no_target/C_30_NT_5.jpg,Mon Aug 30 2021 19:45:15 GMT+0200 (Mitteleuropische Sommerzeit),1630345515990,51.75855,23,main
3220,815,27,"Hallo, ihr da drben! <3",conjunction,correct,right,1630348621503,no target,256,male,167,s,German,1,images/main/conjunction/1/no_target/C_1_NT_7.jpg,Mon Aug 30 2021 19:45:15 GMT+0200 (Mitteleuropische Sommerzeit),1630345515990,51.75855,24,main
3220,2513,27,"Hallo, ihr da drben! <3",conjunction,correct,right,1630348621503,target,256,male,206,l,German,30,images/main/conjunction/30/target/C_30_T_6.jpg,Mon Aug 30 2021 19:45:15 GMT+0200 (Mitteleuropische Sommerzeit),1630345515990,51.75855,25,main
3220,2402,27,"Hallo, ihr da drben! <3",conjunction,correct,right,1630348621503,no target,256,male,209,s,German,30,images/main/conjunction/30/no_target/C_30_NT_1.jpg,Mon Aug 30 2021 19:45:15 GMT+0200 (Mitteleuropische Sommerzeit),1630345515990,51.75855,26,main
3220,1747,27,"Hallo, ihr da drben! <3",conjunction,correct,right,1630348621503,no target,256,male,195,s,German,15,images/main/conjunction/15/no_target/C_15_NT_3.jpg,Mon Aug 30 2021 19:45:15 GMT+0200 (Mitteleuropische Sommerzeit),1630345515990,51.75855,27,main
3220,992,27,"Hallo, ihr da drben! <3",conjunction,correct,right,1630348621503,no target,256,male,164,s,German,1,images/main/conjunction/1/no_target/C_1_NT_4.jpg,Mon Aug 30 2021 19:45:15 GMT+0200 (Mitteleuropische Sommerzeit),1630345515990,51.75855,28,main
3220,835,27,"Hallo, ihr da drben! <3",conjunction,correct,right,1630348621503,no target,256,male,163,s,German,1,images/main/conjunction/1/no_target/C_1_NT_3.jpg,Mon Aug 30 2021 19:45:15 GMT+0200 (Mitteleuropische Sommerzeit),1630345515990,51.75855,29,main
3220,709,27,"Hallo, ihr da drben! <3",conjunction,correct,right,1630348621503,target,256,male,190,l,German,15,images/main/conjunction/15/target/C_15_T_6.jpg,Mon Aug 30 2021 19:45:15 GMT+0200 (Mitteleuropische Sommerzeit),1630345515990,51.75855,30,main
3220,766,27,"Hallo, ihr da drben! <3",conjunction,correct,right,1630348621503,no target,256,male,166,s,German,1,images/main/conjunction/1/no_target/C_1_NT_6.jpg,Mon Aug 30 2021 19:45:15 GMT+0200 (Mitteleuropische Sommerzeit),1630345515990,51.75855,31,main
3220,2162,27,"Hallo, ihr da drben! <3",conjunction,correct,right,1630348621503,no target,256,male,214,s,German,30,images/main/conjunction/30/no_target/C_30_NT_6.jpg,Mon Aug 30 2021 19:45:15 GMT+0200 (Mitteleuropische Sommerzeit),1630345515990,51.75855,32,main
3220,1781,27,"Hallo, ihr da drben! <3",conjunction,correct,right,1630348621503,target,256,male,204,l,German,30,images/main/conjunction/30/target/C_30_T_4.jpg,Mon Aug 30 2021 19:45:15 GMT+0200 (Mitteleuropische Sommerzeit),1630345515990,51.75855,33,main
3220,1206,27,"Hallo, ihr da drben! <3",conjunction,correct,right,1630348621503,no target,256,male,199,s,German,15,images/main/conjunction/15/no_target/C_15_NT_7.jpg,Mon Aug 30 2021 19:45:15 GMT+0200 (Mitteleuropische Sommerzeit),1630345515990,51.75855,34,main
3220,1013,27,"Hallo, ihr da drben! <3",conjunction,correct,right,1630348621503,target,256,male,169,l,German,5,images/main/conjunction/5/target/C_5_T_1.jpg,Mon Aug 30 2021 19:45:15 GMT+0200 (Mitteleuropische Sommerzeit),1630345515990,51.75855,35,main
3220,1810,27,"Hallo, ihr da drben! <3",conjunction,correct,right,1630348621503,no target,256,male,196,s,German,15,images/main/conjunction/15/no_target/C_15_NT_4.jpg,Mon Aug 30 2021 19:45:15 GMT+0200 (Mitteleuropische Sommerzeit),1630345515990,51.75855,36,main
3220,832,27,"Hallo, ihr da drben! <3",conjunction,correct,right,1630348621503,no target,256,male,168,s,German,1,images/main/conjunction/1/no_target/C_1_NT_8.jpg,Mon Aug 30 2021 19:45:15 GMT+0200 (Mitteleuropische Sommerzeit),1630345515990,51.75855,37,main
3220,802,27,"Hallo, ihr da drben! <3",conjunction,correct,right,1630348621503,no target,256,male,165,s,German,1,images/main/conjunction/1/no_target/C_1_NT_5.jpg,Mon Aug 30 2021 19:45:15 GMT+0200 (Mitteleuropische Sommerzeit),1630345515990,51.75855,38,main
3220,985,27,"Hallo, ihr da drben! <3",conjunction,incorrect,right,1630348621503,target,256,male,192,s,German,15,images/main/conjunction/15/target/C_15_T_8.jpg,Mon Aug 30 2021 19:45:15 GMT+0200 (Mitteleuropische Sommerzeit),1630345515990,51.75855,39,main
3220,2599,27,"Hallo, ihr da drben! <3",conjunction,correct,right,1630348621503,no target,256,male,197,s,German,15,images/main/conjunction/15/no_target/C_15_NT_5.jpg,Mon Aug 30 2021 19:45:15 GMT+0200 (Mitteleuropische Sommerzeit),1630345515990,51.75855,40,main
3220,1331,27,"Hallo, ihr da drben! <3",conjunction,correct,right,1630348621503,no target,256,male,184,s,German,5,images/main/conjunction/5/no_target/C_5_NT_8.jpg,Mon Aug 30 2021 19:45:15 GMT+0200 (Mitteleuropische Sommerzeit),1630345515990,51.75855,41,main
